ParticipantID,SessionDate,Block,Trial,PatternType,LeftCoh,RightCoh,Response,RT,Acc,Coh,Run,DegPSec,Gender,Race,Ethnicity,Language,Setting,State,SpeedOrder,AgeYears1,Oct-2014,1,1,linear,0.1,0,L,3.0539,1,0.1,1,2,Male,White,Not Hispanic or Latino,English,Lab,PA,2-8,21.864476391,Oct-2014,1,1,radial,0.15,0,L,3.402,1,0.15,2,8,Male,White,Not Hispanic or Latino,English,Lab,PA,2-8,21.864476391,Oct-2014,1,2,linear,0.2,0,L,0.85076,1,0.2,1,2,Male,White,Not Hispanic or Latino,English,Lab,PA,2-8,21.864476391,Oct-2014,1,2,radial,0.1,0,R,1.5851,0,0.1,2,8,Male,White,Not Hispanic or Latino,English,Lab,PA,2-8,21.864476391,Oct-2014,1,3,radial,0.2,0,L,1.0013,1,0.2,1,2,Male,White,Not Hispanic or Latino,English,Lab,PA,2-8,21.864476391,Oct-2014,1,3,radial,0,0.15,R,2.286,1,0.15,2,8,Male,White,Not Hispanic or Latino,English,Lab,PA,2-8,21.864476391,Oct-2014,1,4,linear,0.05,0,L,1.1344,1,0.05,1,2,Male,White,Not Hispanic or Latino,English,Lab,PA,2-8,21.864476391,Oct-2014,1,4,radial,0,0.2,L,2.8856,0,0.2,2,8,Male,White,Not Hispanic or Latino,English,Lab,PA,2-8,21.864476391,Oct-2014,1,5,linear,0,0.2,R,1.0344,1,0.2,1,2,Male,White,Not Hispanic or Latino,English,Lab,PA,2-8,21.864476391,Oct-2014,1,5,radial,0.05,0,R,2.8529,0,0.05,2,8,Male,White,Not Hispanic or Latino,English,Lab,PA,2-8,21.864476391,Oct-2014,1,6,radial,0,0.05,L,1.1844,0,0.05,1,2,Male,White,Not Hispanic or Latino,English,Lab,PA,2-8,21.864476391,Oct-2014,1,6,linear,0.2,0,L,1.0343,1,0.2,2,8,Male,White,Not Hispanic or Latino,English,Lab,PA,2-8,21.864476391,Oct-2014,1,7,radial,0,0.2,R,1.0174,1,0.2,1,2,Male,White,Not Hispanic or Latino,English,Lab,PA,2-8,21.864476391,Oct-2014,1,7,linear,0,0.1,L,2.4021,0,0.1,2,8,Male,White,Not Hispanic or Latino,English,Lab,PA,2-8,21.864476391,Oct-2014,1,8,linear,0,0.15,L,1.0178,0,0.15,1,2,Male,White,Not Hispanic or Latino,English,Lab,PA,2-8,21.864476391,Oct-2014,1,8,linear,0.15,0,L,1.0679,1,0.15,2,8,Male,White,Not Hispanic or Latino,English,Lab,PA,2-8,21.864476391,Oct-2014,1,9,radial,0,0.15,L,1.402,0,0.15,1,2,Male,White,Not Hispanic or Latino,English,Lab,PA,2-8,21.864476391,Oct-2014,1,9,radial,0,0.1,R,3.7867,1,0.1,2,8,Male,White,Not Hispanic or Latino,English,Lab,PA,2-8,21.864476391,Oct-2014,1,10,linear,0,0.1,L,1.939,0,0.1,1,2,Male,White,Not Hispanic or Latino,English,Lab,PA,2-8,21.864476391,Oct-2014,1,10,linear,0.05,0,L,2.769,1,0.05,2,8,Male,White,Not Hispanic or Latino,English,Lab,PA,2-8,21.864476391,Oct-2014,1,11,radial,0.05,0,R,2.3854,0,0.05,1,2,Male,White,Not Hispanic or Latino,English,Lab,PA,2-8,21.864476391,Oct-2014,1,11,radial,0,0.05,R,2.586,1,0.05,2,8,Male,White,Not Hispanic or Latino,English,Lab,PA,2-8,21.864476391,Oct-2014,1,12,linear,0,0.05,L,2.1412,0,0.05,1,2,Male,White,Not Hispanic or Latino,English,Lab,PA,2-8,21.864476391,Oct-2014,1,12,radial,0.2,0,L,0.9842,1,0.2,2,8,Male,White,Not Hispanic or Latino,English,Lab,PA,2-8,21.864476391,Oct-2014,1,13,radial,0.15,0,L,1.1919,1,0.15,1,2,Male,White,Not Hispanic or Latino,English,Lab,PA,2-8,21.864476391,Oct-2014,1,13,linear,0,0.15,L,1.2845,0,0.15,2,8,Male,White,Not Hispanic or Latino,English,Lab,PA,2-8,21.864476391,Oct-2014,1,14,linear,0.15,0,L,0.88476,1,0.15,1,2,Male,White,Not Hispanic or Latino,English,Lab,PA,2-8,21.864476391,Oct-2014,1,14,linear,0,0.2,R,0.90121,1,0.2,2,8,Male,White,Not Hispanic or Latino,English,Lab,PA,2-8,21.864476391,Oct-2014,1,15,radial,0,0.1,L,2.0746,0,0.1,1,2,Male,White,Not Hispanic or Latino,English,Lab,PA,2-8,21.864476391,Oct-2014,1,15,linear,0.1,0,R,3.7207,0,0.1,2,8,Male,White,Not Hispanic or Latino,English,Lab,PA,2-8,21.864476391,Oct-2014,1,16,radial,0.1,0,R,2.1296,0,0.1,1,2,Male,White,Not Hispanic or Latino,English,Lab,PA,2-8,21.864476391,Oct-2014,1,16,linear,0,0.05,R,3.4867,1,0.05,2,8,Male,White,Not Hispanic or Latino,English,Lab,PA,2-8,21.864476391,Oct-2014,2,1,radial,0.2,0,L,1.2012,1,0.2,1,2,Male,White,Not Hispanic or Latino,English,Lab,PA,2-8,21.864476391,Oct-2014,2,1,linear,0.2,0,L,0.95093,1,0.2,2,8,Male,White,Not Hispanic or Latino,English,Lab,PA,2-8,21.864476391,Oct-2014,2,2,linear,0.1,0,L,1.3216,1,0.1,1,2,Male,White,Not Hispanic or Latino,English,Lab,PA,2-8,21.864476391,Oct-2014,2,2,radial,0.15,0,L,1.2012,1,0.15,2,8,Male,White,Not Hispanic or Latino,English,Lab,PA,2-8,21.864476391,Oct-2014,2,3,linear,0.2,0,L,0.86772,1,0.2,1,2,Male,White,Not Hispanic or Latino,English,Lab,PA,2-8,21.864476391,Oct-2014,2,3,linear,0,0.1,L,4.0909,0,0.1,2,8,Male,White,Not Hispanic or Latino,English,Lab,PA,2-8,21.864476391,Oct-2014,2,4,linear,0.05,0,R,4.4376,0,0.05,1,2,Male,White,Not Hispanic or Latino,English,Lab,PA,2-8,21.864476391,Oct-2014,2,4,radial,0.1,0,L,1.3445,1,0.1,2,8,Male,White,Not Hispanic or Latino,English,Lab,PA,2-8,21.864476391,Oct-2014,2,5,linear,0,0.2,R,0.90089,1,0.2,1,2,Male,White,Not Hispanic or Latino,English,Lab,PA,2-8,21.864476391,Oct-2014,2,5,radial,0,0.15,R,1.4514,1,0.15,2,8,Male,White,Not Hispanic or Latino,English,Lab,PA,2-8,21.864476391,Oct-2014,2,6,radial,0,0.05,L,1.4181,0,0.05,1,2,Male,White,Not Hispanic or Latino,English,Lab,PA,2-8,21.864476391,Oct-2014,2,6,linear,0.15,0,L,1.001,1,0.15,2,8,Male,White,Not Hispanic or Latino,English,Lab,PA,2-8,21.864476391,Oct-2014,2,7,radial,0,0.2,R,0.95096,1,0.2,1,2,Male,White,Not Hispanic or Latino,English,Lab,PA,2-8,21.864476391,Oct-2014,2,7,radial,0,0.2,R,1.1009,1,0.2,2,8,Male,White,Not Hispanic or Latino,English,Lab,PA,2-8,21.864476391,Oct-2014,2,8,linear,0,0.15,R,1.835,1,0.15,1,2,Male,White,Not Hispanic or Latino,English,Lab,PA,2-8,21.864476391,Oct-2014,2,8,radial,0.05,0,R,1.3345,0,0.05,2,8,Male,White,Not Hispanic or Latino,English,Lab,PA,2-8,21.864476391,Oct-2014,2,9,linear,0,0.1,L,1.7683,0,0.1,1,2,Male,White,Not Hispanic or Latino,English,Lab,PA,2-8,21.864476391,Oct-2014,2,9,radial,0,0.1,R,2.1871,1,0.1,2,8,Male,White,Not Hispanic or Latino,English,Lab,PA,2-8,21.864476391,Oct-2014,2,10,radial,0,0.15,R,0.93426,1,0.15,1,2,Male,White,Not Hispanic or Latino,English,Lab,PA,2-8,21.864476391,Oct-2014,2,10,linear,0.05,0,L,1.2845,1,0.05,2,8,Male,White,Not Hispanic or Latino,English,Lab,PA,2-8,21.864476391,Oct-2014,2,11,radial,0.05,0,R,2.2852,0,0.05,1,2,Male,White,Not Hispanic or Latino,English,Lab,PA,2-8,21.864476391,Oct-2014,2,11,radial,0,0.05,L,2.7857,0,0.05,2,8,Male,White,Not Hispanic or Latino,English,Lab,PA,2-8,21.864476391,Oct-2014,2,12,radial,0.15,0,L,0.96759,1,0.15,1,2,Male,White,Not Hispanic or Latino,English,Lab,PA,2-8,21.864476391,Oct-2014,2,12,linear,0,0.15,R,1.5678,1,0.15,2,8,Male,White,Not Hispanic or Latino,English,Lab,PA,2-8,21.864476391,Oct-2014,2,13,linear,0,0.05,R,3.1377,1,0.05,1,2,Male,White,Not Hispanic or Latino,English,Lab,PA,2-8,21.864476391,Oct-2014,2,13,linear,0,0.2,R,1.1344,1,0.2,2,8,Male,White,Not Hispanic or Latino,English,Lab,PA,2-8,21.864476391,Oct-2014,2,14,radial,0,0.1,L,1.8408,0,0.1,1,2,Male,White,Not Hispanic or Latino,English,Lab,PA,2-8,21.864476391,Oct-2014,2,14,linear,0.1,0,L,1.835,1,0.1,2,8,Male,White,Not Hispanic or Latino,English,Lab,PA,2-8,21.864476391,Oct-2014,2,15,radial,0.1,0,L,2.869,1,0.1,1,2,Male,White,Not Hispanic or Latino,English,Lab,PA,2-8,21.864476391,Oct-2014,2,15,radial,0.2,0,L,0.90094,1,0.2,2,8,Male,White,Not Hispanic or Latino,English,Lab,PA,2-8,21.864476391,Oct-2014,2,16,linear,0.15,0,L,1.0873,1,0.15,1,2,Male,White,Not Hispanic or Latino,English,Lab,PA,2-8,21.864476391,Oct-2014,2,16,linear,0,0.05,R,3.8866,1,0.05,2,8,Male,White,Not Hispanic or Latino,English,Lab,PA,2-8,21.864476391,Oct-2014,3,1,radial,0.2,0,L,0.98428,1,0.2,1,2,Male,White,Not Hispanic or Latino,English,Lab,PA,2-8,21.864476391,Oct-2014,3,1,radial,0.15,0,L,1.8348,1,0.15,2,8,Male,White,Not Hispanic or Latino,English,Lab,PA,2-8,21.864476391,Oct-2014,3,2,radial,0,0.05,L,1.0511,0,0.05,1,2,Male,White,Not Hispanic or Latino,English,Lab,PA,2-8,21.864476391,Oct-2014,3,2,radial,0.1,0,L,2.1386,1,0.1,2,8,Male,White,Not Hispanic or Latino,English,Lab,PA,2-8,21.864476391,Oct-2014,3,3,radial,0,0.2,R,0.83418,1,0.2,1,2,Male,White,Not Hispanic or Latino,English,Lab,PA,2-8,21.864476391,Oct-2014,3,3,radial,0,0.15,R,1.001,1,0.15,2,8,Male,White,Not Hispanic or Latino,English,Lab,PA,2-8,21.864476391,Oct-2014,3,4,radial,0,0.15,R,1.7348,1,0.15,1,2,Male,White,Not Hispanic or Latino,English,Lab,PA,2-8,21.864476391,Oct-2014,3,4,radial,0,0.2,R,1.0356,1,0.2,2,8,Male,White,Not Hispanic or Latino,English,Lab,PA,2-8,21.864476391,Oct-2014,3,5,linear,0.1,0,R,2.686,0,0.1,1,2,Male,White,Not Hispanic or Latino,English,Lab,PA,2-8,21.864476391,Oct-2014,3,5,radial,0.05,0,R,1.568,0,0.05,2,8,Male,White,Not Hispanic or Latino,English,Lab,PA,2-8,21.864476391,Oct-2014,3,6,linear,0.2,0,L,1.151,1,0.2,1,2,Male,White,Not Hispanic or Latino,English,Lab,PA,2-8,21.864476391,Oct-2014,3,6,radial,0,0.1,R,1.3552,1,0.1,2,8,Male,White,Not Hispanic or Latino,English,Lab,PA,2-8,21.864476391,Oct-2014,3,7,linear,0.05,0,R,2.7523,0,0.05,1,2,Male,White,Not Hispanic or Latino,English,Lab,PA,2-8,21.864476391,Oct-2014,3,7,radial,0,0.05,L,2.5358,0,0.05,2,8,Male,White,Not Hispanic or Latino,English,Lab,PA,2-8,21.864476391,Oct-2014,3,8,linear,0,0.2,L,1.1344,0,0.2,1,2,Male,White,Not Hispanic or Latino,English,Lab,PA,2-8,21.864476391,Oct-2014,3,8,linear,0.2,0,L,0.88424,1,0.2,2,8,Male,White,Not Hispanic or Latino,English,Lab,PA,2-8,21.864476391,Oct-2014,3,9,linear,0,0.15,R,1.0009,1,0.15,1,2,Male,White,Not Hispanic or Latino,English,Lab,PA,2-8,21.864476391,Oct-2014,3,9,linear,0,0.1,L,0.98445,0,0.1,2,8,Male,White,Not Hispanic or Latino,English,Lab,PA,2-8,21.864476391,Oct-2014,3,10,radial,0.05,0,L,3.2201,1,0.05,1,2,Male,White,Not Hispanic or Latino,English,Lab,PA,2-8,21.864476391,Oct-2014,3,10,radial,0.2,0,L,1.1518,1,0.2,2,8,Male,White,Not Hispanic or Latino,English,Lab,PA,2-8,21.864476391,Oct-2014,3,11,radial,0.15,0,L,1.3346,1,0.15,1,2,Male,White,Not Hispanic or Latino,English,Lab,PA,2-8,21.864476391,Oct-2014,3,11,linear,0.15,0,L,1.301,1,0.15,2,8,Male,White,Not Hispanic or Latino,English,Lab,PA,2-8,21.864476391,Oct-2014,3,12,radial,0,0.1,R,2.8863,1,0.1,1,2,Male,White,Not Hispanic or Latino,English,Lab,PA,2-8,21.864476391,Oct-2014,3,12,linear,0.05,0,L,1.3919,1,0.05,2,8,Male,White,Not Hispanic or Latino,English,Lab,PA,2-8,21.864476391,Oct-2014,3,13,radial,0.1,0,L,1.4223,1,0.1,1,2,Male,White,Not Hispanic or Latino,English,Lab,PA,2-8,21.864476391,Oct-2014,3,13,linear,0,0.15,L,1.3847,0,0.15,2,8,Male,White,Not Hispanic or Latino,English,Lab,PA,2-8,21.864476391,Oct-2014,3,14,linear,0,0.1,R,2.0564,1,0.1,1,2,Male,White,Not Hispanic or Latino,English,Lab,PA,2-8,21.864476391,Oct-2014,3,14,linear,0,0.2,R,1.3513,1,0.2,2,8,Male,White,Not Hispanic or Latino,English,Lab,PA,2-8,21.864476391,Oct-2014,3,15,linear,0,0.05,R,1.5181,1,0.05,1,2,Male,White,Not Hispanic or Latino,English,Lab,PA,2-8,21.864476391,Oct-2014,3,15,linear,0.1,0,L,2.2855,1,0.1,2,8,Male,White,Not Hispanic or Latino,English,Lab,PA,2-8,21.864476391,Oct-2014,3,16,linear,0.15,0,L,1.3011,1,0.15,1,2,Male,White,Not Hispanic or Latino,English,Lab,PA,2-8,21.864476391,Oct-2014,3,16,linear,0,0.05,L,1.8349,0,0.05,2,8,Male,White,Not Hispanic or Latino,English,Lab,PA,2-8,21.864476391,Oct-2014,4,1,linear,0.1,0,L,1.2348,1,0.1,1,2,Male,White,Not Hispanic or Latino,English,Lab,PA,2-8,21.864476391,Oct-2014,4,1,radial,0.15,0,L,1.241,1,0.15,2,8,Male,White,Not Hispanic or Latino,English,Lab,PA,2-8,21.864476391,Oct-2014,4,2,radial,0.2,0,L,1.0177,1,0.2,1,2,Male,White,Not Hispanic or Latino,English,Lab,PA,2-8,21.864476391,Oct-2014,4,2,linear,0.2,0,L,0.96766,1,0.2,2,8,Male,White,Not Hispanic or Latino,English,Lab,PA,2-8,21.864476391,Oct-2014,4,3,radial,0,0.05,R,2.2352,1,0.05,1,2,Male,White,Not Hispanic or Latino,English,Lab,PA,2-8,21.864476391,Oct-2014,4,3,radial,0.1,0,L,1.8521,1,0.1,2,8,Male,White,Not Hispanic or Latino,English,Lab,PA,2-8,21.864476391,Oct-2014,4,4,linear,0.2,0,L,0.86751,1,0.2,1,2,Male,White,Not Hispanic or Latino,English,Lab,PA,2-8,21.864476391,Oct-2014,4,4,radial,0,0.15,R,2.4067,1,0.15,2,8,Male,White,Not Hispanic or Latino,English,Lab,PA,2-8,21.864476391,Oct-2014,4,5,linear,0.05,0,L,1.0846,1,0.05,1,2,Male,White,Not Hispanic or Latino,English,Lab,PA,2-8,21.864476391,Oct-2014,4,5,linear,0,0.1,R,3.4863,1,0.1,2,8,Male,White,Not Hispanic or Latino,English,Lab,PA,2-8,21.864476391,Oct-2014,4,6,radial,0,0.2,L,1.4241,0,0.2,1,2,Male,White,Not Hispanic or Latino,English,Lab,PA,2-8,21.864476391,Oct-2014,4,6,radial,0,0.2,R,0.86781,1,0.2,2,8,Male,White,Not Hispanic or Latino,English,Lab,PA,2-8,21.864476391,Oct-2014,4,7,radial,0,0.15,R,1.4854,1,0.15,1,2,Male,White,Not Hispanic or Latino,English,Lab,PA,2-8,21.864476391,Oct-2014,4,7,radial,0.05,0,L,1.2345,1,0.05,2,8,Male,White,Not Hispanic or Latino,English,Lab,PA,2-8,21.864476391,Oct-2014,4,8,linear,0,0.2,R,1.1346,1,0.2,1,2,Male,White,Not Hispanic or Latino,English,Lab,PA,2-8,21.864476391,Oct-2014,4,8,linear,0.15,0,L,0.9343,1,0.15,2,8,Male,White,Not Hispanic or Latino,English,Lab,PA,2-8,21.864476391,Oct-2014,4,9,linear,0,0.15,L,1.3343,0,0.15,1,2,Male,White,Not Hispanic or Latino,English,Lab,PA,2-8,21.864476391,Oct-2014,4,9,radial,0,0.1,L,1.1847,0,0.1,2,8,Male,White,Not Hispanic or Latino,English,Lab,PA,2-8,21.864476391,Oct-2014,4,10,linear,0,0.1,R,2.1351,1,0.1,1,2,Male,White,Not Hispanic or Latino,English,Lab,PA,2-8,21.864476391,Oct-2014,4,10,radial,0,0.05,L,2.7534,0,0.05,2,8,Male,White,Not Hispanic or Latino,English,Lab,PA,2-8,21.864476391,Oct-2014,4,11,radial,0.05,0,L,1.8351,1,0.05,1,2,Male,White,Not Hispanic or Latino,English,Lab,PA,2-8,21.864476391,Oct-2014,4,11,radial,0.2,0,L,1.0719,1,0.2,2,8,Male,White,Not Hispanic or Latino,English,Lab,PA,2-8,21.864476391,Oct-2014,4,12,linear,0,0.05,R,1.9683,1,0.05,1,2,Male,White,Not Hispanic or Latino,English,Lab,PA,2-8,21.864476391,Oct-2014,4,12,linear,0.05,0,L,1.1105,1,0.05,2,8,Male,White,Not Hispanic or Latino,English,Lab,PA,2-8,21.864476391,Oct-2014,4,13,radial,0.15,0,L,1.9038,1,0.15,1,2,Male,White,Not Hispanic or Latino,English,Lab,PA,2-8,21.864476391,Oct-2014,4,13,linear,0,0.15,L,1.368,0,0.15,2,8,Male,White,Not Hispanic or Latino,English,Lab,PA,2-8,21.864476391,Oct-2014,4,14,linear,0.15,0,L,2.155,1,0.15,1,2,Male,White,Not Hispanic or Latino,English,Lab,PA,2-8,21.864476391,Oct-2014,4,14,linear,0,0.2,R,1.2012,1,0.2,2,8,Male,White,Not Hispanic or Latino,English,Lab,PA,2-8,21.864476391,Oct-2014,4,15,radial,0,0.1,R,1.7182,1,0.1,1,2,Male,White,Not Hispanic or Latino,English,Lab,PA,2-8,21.864476391,Oct-2014,4,15,linear,0.1,0,L,1.2253,1,0.1,2,8,Male,White,Not Hispanic or Latino,English,Lab,PA,2-8,21.864476391,Oct-2014,4,16,radial,0.1,0,R,2.7358,0,0.1,1,2,Male,White,Not Hispanic or Latino,English,Lab,PA,2-8,21.864476391,Oct-2014,4,16,linear,0,0.05,R,1.529,1,0.05,2,8,Male,White,Not Hispanic or Latino,English,Lab,PA,2-8,21.864476391,Oct-2014,5,1,radial,0.2,0,L,0.95111,1,0.2,1,2,Male,White,Not Hispanic or Latino,English,Lab,PA,2-8,21.864476391,Oct-2014,5,1,linear,0.2,0,L,0.83767,1,0.2,2,8,Male,White,Not Hispanic or Latino,English,Lab,PA,2-8,21.864476391,Oct-2014,5,2,linear,0.1,0,L,2.052,1,0.1,1,2,Male,White,Not Hispanic or Latino,English,Lab,PA,2-8,21.864476391,Oct-2014,5,2,radial,0.15,0,L,1.0844,1,0.15,2,8,Male,White,Not Hispanic or Latino,English,Lab,PA,2-8,21.864476391,Oct-2014,5,3,linear,0.2,0,L,1.2381,1,0.2,1,2,Male,White,Not Hispanic or Latino,English,Lab,PA,2-8,21.864476391,Oct-2014,5,3,linear,0,0.1,R,1.9183,1,0.1,2,8,Male,White,Not Hispanic or Latino,English,Lab,PA,2-8,21.864476391,Oct-2014,5,4,radial,0,0.05,L,1.5014,0,0.05,1,2,Male,White,Not Hispanic or Latino,English,Lab,PA,2-8,21.864476391,Oct-2014,5,4,radial,0.1,0,L,0.95109,1,0.1,2,8,Male,White,Not Hispanic or Latino,English,Lab,PA,2-8,21.864476391,Oct-2014,5,5,radial,0,0.2,R,1.785,1,0.2,1,2,Male,White,Not Hispanic or Latino,English,Lab,PA,2-8,21.864476391,Oct-2014,5,5,linear,0.15,0,L,0.98398,1,0.15,2,8,Male,White,Not Hispanic or Latino,English,Lab,PA,2-8,21.864476391,Oct-2014,5,6,linear,0.05,0,L,2.9196,1,0.05,1,2,Male,White,Not Hispanic or Latino,English,Lab,PA,2-8,21.864476391,Oct-2014,5,6,radial,0,0.15,L,1.9183,0,0.15,2,8,Male,White,Not Hispanic or Latino,English,Lab,PA,2-8,21.864476391,Oct-2014,5,7,linear,0,0.2,R,0.95095,1,0.2,1,2,Male,White,Not Hispanic or Latino,English,Lab,PA,2-8,21.864476391,Oct-2014,5,7,radial,0,0.2,R,1.0847,1,0.2,2,8,Male,White,Not Hispanic or Latino,English,Lab,PA,2-8,21.864476391,Oct-2014,5,8,radial,0,0.15,R,0.90103,1,0.15,1,2,Male,White,Not Hispanic or Latino,English,Lab,PA,2-8,21.864476391,Oct-2014,5,8,radial,0.05,0,R,1.3514,0,0.05,2,8,Male,White,Not Hispanic or Latino,English,Lab,PA,2-8,21.864476391,Oct-2014,5,9,radial,0.05,0,R,2.1556,0,0.05,1,2,Male,White,Not Hispanic or Latino,English,Lab,PA,2-8,21.864476391,Oct-2014,5,9,linear,0.05,0,L,0.834,1,0.05,2,8,Male,White,Not Hispanic or Latino,English,Lab,PA,2-8,21.864476391,Oct-2014,5,10,radial,0.15,0,L,1.0681,1,0.15,1,2,Male,White,Not Hispanic or Latino,English,Lab,PA,2-8,21.864476391,Oct-2014,5,10,linear,0,0.15,R,1.8683,1,0.15,2,8,Male,White,Not Hispanic or Latino,English,Lab,PA,2-8,21.864476391,Oct-2014,5,11,radial,0,0.1,R,1.4945,1,0.1,1,2,Male,White,Not Hispanic or Latino,English,Lab,PA,2-8,21.864476391,Oct-2014,5,11,linear,0,0.2,R,1.0009,1,0.2,2,8,Male,White,Not Hispanic or Latino,English,Lab,PA,2-8,21.864476391,Oct-2014,5,12,radial,0.1,0,R,2.1351,0,0.1,1,2,Male,White,Not Hispanic or Latino,English,Lab,PA,2-8,21.864476391,Oct-2014,5,12,radial,0,0.1,R,1.4177,1,0.1,2,8,Male,White,Not Hispanic or Latino,English,Lab,PA,2-8,21.864476391,Oct-2014,5,13,linear,0,0.15,R,1.4231,1,0.15,1,2,Male,White,Not Hispanic or Latino,English,Lab,PA,2-8,21.864476391,Oct-2014,5,13,radial,0,0.05,L,2.7525,0,0.05,2,8,Male,White,Not Hispanic or Latino,English,Lab,PA,2-8,21.864476391,Oct-2014,5,14,linear,0,0.1,R,1.1176,1,0.1,1,2,Male,White,Not Hispanic or Latino,English,Lab,PA,2-8,21.864476391,Oct-2014,5,14,linear,0.1,0,R,2.0019,0,0.1,2,8,Male,White,Not Hispanic or Latino,English,Lab,PA,2-8,21.864476391,Oct-2014,5,15,linear,0,0.05,R,3.737,1,0.05,1,2,Male,White,Not Hispanic or Latino,English,Lab,PA,2-8,21.864476391,Oct-2014,5,15,radial,0.2,0,L,1.468,1,0.2,2,8,Male,White,Not Hispanic or Latino,English,Lab,PA,2-8,21.864476391,Oct-2014,5,16,linear,0.15,0,L,1.718,1,0.15,1,2,Male,White,Not Hispanic or Latino,English,Lab,PA,2-8,21.864476391,Oct-2014,5,16,linear,0,0.05,R,3.2529,1,0.05,2,8,Male,White,Not Hispanic or Latino,English,Lab,PA,2-8,21.864476391,Oct-2014,1,1,linear,0.1,0,R,2.6154,0,0.1,1,2,Male,White,Not Hispanic or Latino,English,Lab,PA,2-8-2-8,21.905544151,Oct-2014,1,1,linear,0.1,0,L,1.1177,1,0.1,3,2,Male,White,Not Hispanic or Latino,English,Lab,PA,2-8-2-8,21.905544151,Oct-2014,1,1,radial,0.15,0,L,1.8853,1,0.15,2,8,Male,White,Not Hispanic or Latino,English,Lab,PA,2-8-2-8,21.905544151,Oct-2014,1,1,radial,0.15,0,L,1.2344,1,0.15,4,8,Male,White,Not Hispanic or Latino,English,Lab,PA,2-8-2-8,21.905544151,Oct-2014,1,2,linear,0.2,0,L,1.7685,1,0.2,1,2,Male,White,Not Hispanic or Latino,English,Lab,PA,2-8-2-8,21.905544151,Oct-2014,1,2,linear,0.2,0,L,0.88429,1,0.2,3,2,Male,White,Not Hispanic or Latino,English,Lab,PA,2-8-2-8,21.905544151,Oct-2014,1,2,radial,0.1,0,R,3.1692,0,0.1,2,8,Male,White,Not Hispanic or Latino,English,Lab,PA,2-8-2-8,21.905544151,Oct-2014,1,2,radial,0.1,0,L,1.6085,1,0.1,4,8,Male,White,Not Hispanic or Latino,English,Lab,PA,2-8-2-8,21.905544151,Oct-2014,1,3,radial,0.2,0,L,0.98448,1,0.2,1,2,Male,White,Not Hispanic or Latino,English,Lab,PA,2-8-2-8,21.905544151,Oct-2014,1,3,radial,0.2,0,L,1.0009,1,0.2,3,2,Male,White,Not Hispanic or Latino,English,Lab,PA,2-8-2-8,21.905544151,Oct-2014,1,3,radial,0,0.15,R,1.1596,1,0.15,2,8,Male,White,Not Hispanic or Latino,English,Lab,PA,2-8-2-8,21.905544151,Oct-2014,1,3,radial,0,0.15,R,0.86817,1,0.15,4,8,Male,White,Not Hispanic or Latino,English,Lab,PA,2-8-2-8,21.905544151,Oct-2014,1,4,linear,0.05,0,L,3.286,1,0.05,1,2,Male,White,Not Hispanic or Latino,English,Lab,PA,2-8-2-8,21.905544151,Oct-2014,1,4,linear,0.05,0,R,1.2698,0,0.05,3,2,Male,White,Not Hispanic or Latino,English,Lab,PA,2-8-2-8,21.905544151,Oct-2014,1,4,radial,0,0.2,R,1.3678,1,0.2,2,8,Male,White,Not Hispanic or Latino,English,Lab,PA,2-8-2-8,21.905544151,Oct-2014,1,4,radial,0,0.2,R,1.101,1,0.2,4,8,Male,White,Not Hispanic or Latino,English,Lab,PA,2-8-2-8,21.905544151,Oct-2014,1,5,linear,0,0.2,L,1.8017,0,0.2,1,2,Male,White,Not Hispanic or Latino,English,Lab,PA,2-8-2-8,21.905544151,Oct-2014,1,5,linear,0,0.2,L,0.81755,0,0.2,3,2,Male,White,Not Hispanic or Latino,English,Lab,PA,2-8-2-8,21.905544151,Oct-2014,1,5,radial,0.05,0,L,1.9517,1,0.05,2,8,Male,White,Not Hispanic or Latino,English,Lab,PA,2-8-2-8,21.905544151,Oct-2014,1,5,radial,0.05,0,R,2.8022,0,0.05,4,8,Male,White,Not Hispanic or Latino,English,Lab,PA,2-8-2-8,21.905544151,Oct-2014,1,6,radial,0,0.05,R,3.6066,1,0.05,1,2,Male,White,Not Hispanic or Latino,English,Lab,PA,2-8-2-8,21.905544151,Oct-2014,1,6,radial,0,0.05,R,2.5084,1,0.05,3,2,Male,White,Not Hispanic or Latino,English,Lab,PA,2-8-2-8,21.905544151,Oct-2014,1,6,linear,0.2,0,L,1.0009,1,0.2,2,8,Male,White,Not Hispanic or Latino,English,Lab,PA,2-8-2-8,21.905544151,Oct-2014,1,6,linear,0.2,0,L,0.90075,1,0.2,4,8,Male,White,Not Hispanic or Latino,English,Lab,PA,2-8-2-8,21.905544151,Oct-2014,1,7,radial,0,0.2,R,0.85086,1,0.2,1,2,Male,White,Not Hispanic or Latino,English,Lab,PA,2-8-2-8,21.905544151,Oct-2014,1,7,radial,0,0.2,R,1.1067,1,0.2,3,2,Male,White,Not Hispanic or Latino,English,Lab,PA,2-8-2-8,21.905544151,Oct-2014,1,7,linear,0,0.1,L,1.401,0,0.1,2,8,Male,White,Not Hispanic or Latino,English,Lab,PA,2-8-2-8,21.905544151,Oct-2014,1,7,linear,0,0.1,R,1.2679,1,0.1,4,8,Male,White,Not Hispanic or Latino,English,Lab,PA,2-8-2-8,21.905544151,Oct-2014,1,8,linear,0,0.15,R,0.96781,1,0.15,1,2,Male,White,Not Hispanic or Latino,English,Lab,PA,2-8-2-8,21.905544151,Oct-2014,1,8,linear,0,0.15,R,0.90144,1,0.15,3,2,Male,White,Not Hispanic or Latino,English,Lab,PA,2-8-2-8,21.905544151,Oct-2014,1,8,linear,0.15,0,L,1.4181,1,0.15,2,8,Male,White,Not Hispanic or Latino,English,Lab,PA,2-8-2-8,21.905544151,Oct-2014,1,8,linear,0.15,0,L,1.3845,1,0.15,4,8,Male,White,Not Hispanic or Latino,English,Lab,PA,2-8-2-8,21.905544151,Oct-2014,1,9,radial,0,0.15,R,1.9354,1,0.15,1,2,Male,White,Not Hispanic or Latino,English,Lab,PA,2-8-2-8,21.905544151,Oct-2014,1,9,radial,0,0.15,R,1.4724,1,0.15,3,2,Male,White,Not Hispanic or Latino,English,Lab,PA,2-8-2-8,21.905544151,Oct-2014,1,9,radial,0,0.1,R,2.36,1,0.1,2,8,Male,White,Not Hispanic or Latino,English,Lab,PA,2-8-2-8,21.905544151,Oct-2014,1,9,radial,0,0.1,R,1.301,1,0.1,4,8,Male,White,Not Hispanic or Latino,English,Lab,PA,2-8-2-8,21.905544151,Oct-2014,1,10,linear,0,0.1,R,1.8356,1,0.1,1,2,Male,White,Not Hispanic or Latino,English,Lab,PA,2-8-2-8,21.905544151,Oct-2014,1,10,linear,0,0.1,L,1.6684,0,0.1,3,2,Male,White,Not Hispanic or Latino,English,Lab,PA,2-8-2-8,21.905544151,Oct-2014,1,10,linear,0.05,0,L,3.4696,1,0.05,2,8,Male,White,Not Hispanic or Latino,English,Lab,PA,2-8-2-8,21.905544151,Oct-2014,1,10,linear,0.05,0,L,1.4179,1,0.05,4,8,Male,White,Not Hispanic or Latino,English,Lab,PA,2-8-2-8,21.905544151,Oct-2014,1,11,radial,0.05,0,L,3.3196,1,0.05,1,2,Male,White,Not Hispanic or Latino,English,Lab,PA,2-8-2-8,21.905544151,Oct-2014,1,11,radial,0.05,0,R,2.0541,0,0.05,3,2,Male,White,Not Hispanic or Latino,English,Lab,PA,2-8-2-8,21.905544151,Oct-2014,1,11,radial,0,0.05,L,1.8183,0,0.05,2,8,Male,White,Not Hispanic or Latino,English,Lab,PA,2-8-2-8,21.905544151,Oct-2014,1,11,radial,0,0.05,R,1.0509,1,0.05,4,8,Male,White,Not Hispanic or Latino,English,Lab,PA,2-8-2-8,21.905544151,Oct-2014,1,12,linear,0,0.05,L,1.8183,0,0.05,1,2,Male,White,Not Hispanic or Latino,English,Lab,PA,2-8-2-8,21.905544151,Oct-2014,1,12,linear,0,0.05,R,1.7856,1,0.05,3,2,Male,White,Not Hispanic or Latino,English,Lab,PA,2-8-2-8,21.905544151,Oct-2014,1,12,radial,0.2,0,L,1.0844,1,0.2,2,8,Male,White,Not Hispanic or Latino,English,Lab,PA,2-8-2-8,21.905544151,Oct-2014,1,12,radial,0.2,0,L,1.0512,1,0.2,4,8,Male,White,Not Hispanic or Latino,English,Lab,PA,2-8-2-8,21.905544151,Oct-2014,1,13,radial,0.15,0,L,1.6016,1,0.15,1,2,Male,White,Not Hispanic or Latino,English,Lab,PA,2-8-2-8,21.905544151,Oct-2014,1,13,radial,0.15,0,R,1.9683,0,0.15,3,2,Male,White,Not Hispanic or Latino,English,Lab,PA,2-8-2-8,21.905544151,Oct-2014,1,13,linear,0,0.15,L,1.8519,0,0.15,2,8,Male,White,Not Hispanic or Latino,English,Lab,PA,2-8-2-8,21.905544151,Oct-2014,1,13,linear,0,0.15,R,2.1683,1,0.15,4,8,Male,White,Not Hispanic or Latino,English,Lab,PA,2-8-2-8,21.905544151,Oct-2014,1,14,linear,0.15,0,L,2.2872,1,0.15,1,2,Male,White,Not Hispanic or Latino,English,Lab,PA,2-8-2-8,21.905544151,Oct-2014,1,14,linear,0.15,0,L,0.71756,1,0.15,3,2,Male,White,Not Hispanic or Latino,English,Lab,PA,2-8-2-8,21.905544151,Oct-2014,1,14,linear,0,0.2,R,1.9517,1,0.2,2,8,Male,White,Not Hispanic or Latino,English,Lab,PA,2-8-2-8,21.905544151,Oct-2014,1,14,linear,0,0.2,R,1.9518,1,0.2,4,8,Male,White,Not Hispanic or Latino,English,Lab,PA,2-8-2-8,21.905544151,Oct-2014,1,15,radial,0,0.1,L,1.4352,0,0.1,1,2,Male,White,Not Hispanic or Latino,English,Lab,PA,2-8-2-8,21.905544151,Oct-2014,1,15,radial,0,0.1,R,1.3011,1,0.1,3,2,Male,White,Not Hispanic or Latino,English,Lab,PA,2-8-2-8,21.905544151,Oct-2014,1,15,linear,0.1,0,R,2.7022,0,0.1,2,8,Male,White,Not Hispanic or Latino,English,Lab,PA,2-8-2-8,21.905544151,Oct-2014,1,15,linear,0.1,0,R,1.8684,0,0.1,4,8,Male,White,Not Hispanic or Latino,English,Lab,PA,2-8-2-8,21.905544151,Oct-2014,1,16,radial,0.1,0,L,2.7359,1,0.1,1,2,Male,White,Not Hispanic or Latino,English,Lab,PA,2-8-2-8,21.905544151,Oct-2014,1,16,radial,0.1,0,L,1.2845,1,0.1,3,2,Male,White,Not Hispanic or Latino,English,Lab,PA,2-8-2-8,21.905544151,Oct-2014,1,16,linear,0,0.05,L,2.3352,0,0.05,2,8,Male,White,Not Hispanic or Latino,English,Lab,PA,2-8-2-8,21.905544151,Oct-2014,1,16,linear,0,0.05,R,2.7358,1,0.05,4,8,Male,White,Not Hispanic or Latino,English,Lab,PA,2-8-2-8,21.905544151,Oct-2014,2,1,radial,0.2,0,L,1.6012,1,0.2,1,2,Male,White,Not Hispanic or Latino,English,Lab,PA,2-8-2-8,21.905544151,Oct-2014,2,1,radial,0.2,0,L,1.051,1,0.2,3,2,Male,White,Not Hispanic or Latino,English,Lab,PA,2-8-2-8,21.905544151,Oct-2014,2,1,linear,0.2,0,L,0.98428,1,0.2,2,8,Male,White,Not Hispanic or Latino,English,Lab,PA,2-8-2-8,21.905544151,Oct-2014,2,1,linear,0.2,0,L,0.96776,1,0.2,4,8,Male,White,Not Hispanic or Latino,English,Lab,PA,2-8-2-8,21.905544151,Oct-2014,2,2,linear,0.1,0,L,2.0765,1,0.1,1,2,Male,White,Not Hispanic or Latino,English,Lab,PA,2-8-2-8,21.905544151,Oct-2014,2,2,linear,0.1,0,L,0.96758,1,0.1,3,2,Male,White,Not Hispanic or Latino,English,Lab,PA,2-8-2-8,21.905544151,Oct-2014,2,2,radial,0.15,0,L,1.9685,1,0.15,2,8,Male,White,Not Hispanic or Latino,English,Lab,PA,2-8-2-8,21.905544151,Oct-2014,2,2,radial,0.15,0,L,1.0176,1,0.15,4,8,Male,White,Not Hispanic or Latino,English,Lab,PA,2-8-2-8,21.905544151,Oct-2014,2,3,linear,0.2,0,L,1.4865,1,0.2,1,2,Male,White,Not Hispanic or Latino,English,Lab,PA,2-8-2-8,21.905544151,Oct-2014,2,3,linear,0.2,0,L,0.75052,1,0.2,3,2,Male,White,Not Hispanic or Latino,English,Lab,PA,2-8-2-8,21.905544151,Oct-2014,2,3,linear,0,0.1,R,2.8691,1,0.1,2,8,Male,White,Not Hispanic or Latino,English,Lab,PA,2-8-2-8,21.905544151,Oct-2014,2,3,linear,0,0.1,L,1.3349,0,0.1,4,8,Male,White,Not Hispanic or Latino,English,Lab,PA,2-8-2-8,21.905544151,Oct-2014,2,4,linear,0.05,0,L,1.7847,1,0.05,1,2,Male,White,Not Hispanic or Latino,English,Lab,PA,2-8-2-8,21.905544151,Oct-2014,2,4,linear,0.05,0,R,1.9851,0,0.05,3,2,Male,White,Not Hispanic or Latino,English,Lab,PA,2-8-2-8,21.905544151,Oct-2014,2,4,radial,0.1,0,L,1.7852,1,0.1,2,8,Male,White,Not Hispanic or Latino,English,Lab,PA,2-8-2-8,21.905544151,Oct-2014,2,4,radial,0.1,0,L,1.4203,1,0.1,4,8,Male,White,Not Hispanic or Latino,English,Lab,PA,2-8-2-8,21.905544151,Oct-2014,2,5,linear,0,0.2,R,1.1513,1,0.2,1,2,Male,White,Not Hispanic or Latino,English,Lab,PA,2-8-2-8,21.905544151,Oct-2014,2,5,linear,0,0.2,L,0.98434,0,0.2,3,2,Male,White,Not Hispanic or Latino,English,Lab,PA,2-8-2-8,21.905544151,Oct-2014,2,5,radial,0,0.15,R,1.5511,1,0.15,2,8,Male,White,Not Hispanic or Latino,English,Lab,PA,2-8-2-8,21.905544151,Oct-2014,2,5,radial,0,0.15,R,1.055,1,0.15,4,8,Male,White,Not Hispanic or Latino,English,Lab,PA,2-8-2-8,21.905544151,Oct-2014,2,6,radial,0,0.05,L,2.0548,0,0.05,1,2,Male,White,Not Hispanic or Latino,English,Lab,PA,2-8-2-8,21.905544151,Oct-2014,2,6,radial,0,0.05,L,1.3678,0,0.05,3,2,Male,White,Not Hispanic or Latino,English,Lab,PA,2-8-2-8,21.905544151,Oct-2014,2,6,linear,0.15,0,R,2.9524,0,0.15,2,8,Male,White,Not Hispanic or Latino,English,Lab,PA,2-8-2-8,21.905544151,Oct-2014,2,6,linear,0.15,0,L,1.0514,1,0.15,4,8,Male,White,Not Hispanic or Latino,English,Lab,PA,2-8-2-8,21.905544151,Oct-2014,2,7,radial,0,0.2,R,1.1178,1,0.2,1,2,Male,White,Not Hispanic or Latino,English,Lab,PA,2-8-2-8,21.905544151,Oct-2014,2,7,radial,0,0.2,R,0.9176,1,0.2,3,2,Male,White,Not Hispanic or Latino,English,Lab,PA,2-8-2-8,21.905544151,Oct-2014,2,7,radial,0,0.2,R,1.0009,1,0.2,2,8,Male,White,Not Hispanic or Latino,English,Lab,PA,2-8-2-8,21.905544151,Oct-2014,2,7,radial,0,0.2,R,0.98444,1,0.2,4,8,Male,White,Not Hispanic or Latino,English,Lab,PA,2-8-2-8,21.905544151,Oct-2014,2,8,linear,0,0.15,R,1.2384,1,0.15,1,2,Male,White,Not Hispanic or Latino,English,Lab,PA,2-8-2-8,21.905544151,Oct-2014,2,8,linear,0,0.15,R,1.5897,1,0.15,3,2,Male,White,Not Hispanic or Latino,English,Lab,PA,2-8-2-8,21.905544151,Oct-2014,2,8,radial,0.05,0,R,1.9518,0,0.05,2,8,Male,White,Not Hispanic or Latino,English,Lab,PA,2-8-2-8,21.905544151,Oct-2014,2,8,radial,0.05,0,R,3.6706,0,0.05,4,8,Male,White,Not Hispanic or Latino,English,Lab,PA,2-8-2-8,21.905544151,Oct-2014,2,9,linear,0,0.1,L,1.4512,0,0.1,1,2,Male,White,Not Hispanic or Latino,English,Lab,PA,2-8-2-8,21.905544151,Oct-2014,2,9,linear,0,0.1,L,0.8025,0,0.1,3,2,Male,White,Not Hispanic or Latino,English,Lab,PA,2-8-2-8,21.905544151,Oct-2014,2,9,radial,0,0.1,L,3.1239,0,0.1,2,8,Male,White,Not Hispanic or Latino,English,Lab,PA,2-8-2-8,21.905544151,Oct-2014,2,9,radial,0,0.1,R,2.1683,1,0.1,4,8,Male,White,Not Hispanic or Latino,English,Lab,PA,2-8-2-8,21.905544151,Oct-2014,2,10,radial,0,0.15,R,1.0679,1,0.15,1,2,Male,White,Not Hispanic or Latino,English,Lab,PA,2-8-2-8,21.905544151,Oct-2014,2,10,radial,0,0.15,L,2.569,0,0.15,3,2,Male,White,Not Hispanic or Latino,English,Lab,PA,2-8-2-8,21.905544151,Oct-2014,2,10,linear,0.05,0,L,1.2513,1,0.05,2,8,Male,White,Not Hispanic or Latino,English,Lab,PA,2-8-2-8,21.905544151,Oct-2014,2,10,linear,0.05,0,L,1.3012,1,0.05,4,8,Male,White,Not Hispanic or Latino,English,Lab,PA,2-8-2-8,21.905544151,Oct-2014,2,11,radial,0.05,0,R,2.669,0,0.05,1,2,Male,White,Not Hispanic or Latino,English,Lab,PA,2-8-2-8,21.905544151,Oct-2014,2,11,radial,0.05,0,L,1.537,1,0.05,3,2,Male,White,Not Hispanic or Latino,English,Lab,PA,2-8-2-8,21.905544151,Oct-2014,2,11,radial,0,0.05,R,3.1886,1,0.05,2,8,Male,White,Not Hispanic or Latino,English,Lab,PA,2-8-2-8,21.905544151,Oct-2014,2,11,radial,0,0.05,R,2.2184,1,0.05,4,8,Male,White,Not Hispanic or Latino,English,Lab,PA,2-8-2-8,21.905544151,Oct-2014,2,12,radial,0.15,0,L,1.7683,1,0.15,1,2,Male,White,Not Hispanic or Latino,English,Lab,PA,2-8-2-8,21.905544151,Oct-2014,2,12,radial,0.15,0,R,1.7183,0,0.15,3,2,Male,White,Not Hispanic or Latino,English,Lab,PA,2-8-2-8,21.905544151,Oct-2014,2,12,linear,0,0.15,L,1.5347,0,0.15,2,8,Male,White,Not Hispanic or Latino,English,Lab,PA,2-8-2-8,21.905544151,Oct-2014,2,12,linear,0,0.15,R,1.552,1,0.15,4,8,Male,White,Not Hispanic or Latino,English,Lab,PA,2-8-2-8,21.905544151,Oct-2014,2,13,linear,0,0.05,R,2.3185,1,0.05,1,2,Male,White,Not Hispanic or Latino,English,Lab,PA,2-8-2-8,21.905544151,Oct-2014,2,13,linear,0,0.05,R,1.5012,1,0.05,3,2,Male,White,Not Hispanic or Latino,English,Lab,PA,2-8-2-8,21.905544151,Oct-2014,2,13,linear,0,0.2,R,1.9019,1,0.2,2,8,Male,White,Not Hispanic or Latino,English,Lab,PA,2-8-2-8,21.905544151,Oct-2014,2,13,linear,0,0.2,R,1.1844,1,0.2,4,8,Male,White,Not Hispanic or Latino,English,Lab,PA,2-8-2-8,21.905544151,Oct-2014,2,14,radial,0,0.1,R,1.9682,1,0.1,1,2,Male,White,Not Hispanic or Latino,English,Lab,PA,2-8-2-8,21.905544151,Oct-2014,2,14,radial,0,0.1,R,0.951,1,0.1,3,2,Male,White,Not Hispanic or Latino,English,Lab,PA,2-8-2-8,21.905544151,Oct-2014,2,14,linear,0.1,0,L,2.1375,1,0.1,2,8,Male,White,Not Hispanic or Latino,English,Lab,PA,2-8-2-8,21.905544151,Oct-2014,2,14,linear,0.1,0,L,1.051,1,0.1,4,8,Male,White,Not Hispanic or Latino,English,Lab,PA,2-8-2-8,21.905544151,Oct-2014,2,15,radial,0.1,0,R,1.9018,0,0.1,1,2,Male,White,Not Hispanic or Latino,English,Lab,PA,2-8-2-8,21.905544151,Oct-2014,2,15,radial,0.1,0,L,3.3028,1,0.1,3,2,Male,White,Not Hispanic or Latino,English,Lab,PA,2-8-2-8,21.905544151,Oct-2014,2,15,radial,0.2,0,L,0.78431,1,0.2,2,8,Male,White,Not Hispanic or Latino,English,Lab,PA,2-8-2-8,21.905544151,Oct-2014,2,15,radial,0.2,0,L,0.88425,1,0.2,4,8,Male,White,Not Hispanic or Latino,English,Lab,PA,2-8-2-8,21.905544151,Oct-2014,2,16,linear,0.15,0,L,0.83439,1,0.15,1,2,Male,White,Not Hispanic or Latino,English,Lab,PA,2-8-2-8,21.905544151,Oct-2014,2,16,linear,0.15,0,L,2.3018,1,0.15,3,2,Male,White,Not Hispanic or Latino,English,Lab,PA,2-8-2-8,21.905544151,Oct-2014,2,16,linear,0,0.05,R,2.102,1,0.05,2,8,Male,White,Not Hispanic or Latino,English,Lab,PA,2-8-2-8,21.905544151,Oct-2014,2,16,linear,0,0.05,R,1.578,1,0.05,4,8,Male,White,Not Hispanic or Latino,English,Lab,PA,2-8-2-8,21.905544151,Oct-2014,3,1,radial,0.2,0,L,1.8017,1,0.2,1,2,Male,White,Not Hispanic or Latino,English,Lab,PA,2-8-2-8,21.905544151,Oct-2014,3,1,radial,0.2,0,L,2.29,1,0.2,3,2,Male,White,Not Hispanic or Latino,English,Lab,PA,2-8-2-8,21.905544151,Oct-2014,3,1,radial,0.15,0,L,1.2676,1,0.15,2,8,Male,White,Not Hispanic or Latino,English,Lab,PA,2-8-2-8,21.905544151,Oct-2014,3,1,radial,0.15,0,L,1.3183,1,0.15,4,8,Male,White,Not Hispanic or Latino,English,Lab,PA,2-8-2-8,21.905544151,Oct-2014,3,2,radial,0,0.05,L,2.6356,0,0.05,1,2,Male,White,Not Hispanic or Latino,English,Lab,PA,2-8-2-8,21.905544151,Oct-2014,3,2,radial,0,0.05,L,2.569,0,0.05,3,2,Male,White,Not Hispanic or Latino,English,Lab,PA,2-8-2-8,21.905544151,Oct-2014,3,2,radial,0.1,0,L,1.9538,1,0.1,2,8,Male,White,Not Hispanic or Latino,English,Lab,PA,2-8-2-8,21.905544151,Oct-2014,3,2,radial,0.1,0,R,1.735,0,0.1,4,8,Male,White,Not Hispanic or Latino,English,Lab,PA,2-8-2-8,21.905544151,Oct-2014,3,3,radial,0,0.2,R,1.2679,1,0.2,1,2,Male,White,Not Hispanic or Latino,English,Lab,PA,2-8-2-8,21.905544151,Oct-2014,3,3,radial,0,0.2,L,0.9676,0,0.2,3,2,Male,White,Not Hispanic or Latino,English,Lab,PA,2-8-2-8,21.905544151,Oct-2014,3,3,radial,0,0.15,R,1.3098,1,0.15,2,8,Male,White,Not Hispanic or Latino,English,Lab,PA,2-8-2-8,21.905544151,Oct-2014,3,3,radial,0,0.15,R,1.1677,1,0.15,4,8,Male,White,Not Hispanic or Latino,English,Lab,PA,2-8-2-8,21.905544151,Oct-2014,3,4,radial,0,0.15,R,1.8519,1,0.15,1,2,Male,White,Not Hispanic or Latino,English,Lab,PA,2-8-2-8,21.905544151,Oct-2014,3,4,radial,0,0.15,R,1.3752,1,0.15,3,2,Male,White,Not Hispanic or Latino,English,Lab,PA,2-8-2-8,21.905544151,Oct-2014,3,4,radial,0,0.2,R,0.9845,1,0.2,2,8,Male,White,Not Hispanic or Latino,English,Lab,PA,2-8-2-8,21.905544151,Oct-2014,3,4,radial,0,0.2,R,0.98436,1,0.2,4,8,Male,White,Not Hispanic or Latino,English,Lab,PA,2-8-2-8,21.905544151,Oct-2014,3,5,linear,0.1,0,L,1.2049,1,0.1,1,2,Male,White,Not Hispanic or Latino,English,Lab,PA,2-8-2-8,21.905544151,Oct-2014,3,5,linear,0.1,0,L,1.5682,1,0.1,3,2,Male,White,Not Hispanic or Latino,English,Lab,PA,2-8-2-8,21.905544151,Oct-2014,3,5,radial,0.05,0,R,1.5452,0,0.05,2,8,Male,White,Not Hispanic or Latino,English,Lab,PA,2-8-2-8,21.905544151,Oct-2014,3,5,radial,0.05,0,R,2.3526,0,0.05,4,8,Male,White,Not Hispanic or Latino,English,Lab,PA,2-8-2-8,21.905544151,Oct-2014,3,6,linear,0.2,0,L,0.85104,1,0.2,1,2,Male,White,Not Hispanic or Latino,English,Lab,PA,2-8-2-8,21.905544151,Oct-2014,3,6,linear,0.2,0,L,0.96798,1,0.2,3,2,Male,White,Not Hispanic or Latino,English,Lab,PA,2-8-2-8,21.905544151,Oct-2014,3,6,radial,0,0.1,R,1.9021,1,0.1,2,8,Male,White,Not Hispanic or Latino,English,Lab,PA,2-8-2-8,21.905544151,Oct-2014,3,6,radial,0,0.1,R,1.8354,1,0.1,4,8,Male,White,Not Hispanic or Latino,English,Lab,PA,2-8-2-8,21.905544151,Oct-2014,3,7,linear,0.05,0,R,2.1184,0,0.05,1,2,Male,White,Not Hispanic or Latino,English,Lab,PA,2-8-2-8,21.905544151,Oct-2014,3,7,linear,0.05,0,R,1.9014,0,0.05,3,2,Male,White,Not Hispanic or Latino,English,Lab,PA,2-8-2-8,21.905544151,Oct-2014,3,7,radial,0,0.05,L,2.969,0,0.05,2,8,Male,White,Not Hispanic or Latino,English,Lab,PA,2-8-2-8,21.905544151,Oct-2014,3,7,radial,0,0.05,R,1.5179,1,0.05,4,8,Male,White,Not Hispanic or Latino,English,Lab,PA,2-8-2-8,21.905544151,Oct-2014,3,8,linear,0,0.2,L,1.8351,0,0.2,1,2,Male,White,Not Hispanic or Latino,English,Lab,PA,2-8-2-8,21.905544151,Oct-2014,3,8,linear,0,0.2,R,1.0513,1,0.2,3,2,Male,White,Not Hispanic or Latino,English,Lab,PA,2-8-2-8,21.905544151,Oct-2014,3,8,linear,0.2,0,L,1.0511,1,0.2,2,8,Male,White,Not Hispanic or Latino,English,Lab,PA,2-8-2-8,21.905544151,Oct-2014,3,8,linear,0.2,0,L,0.95094,1,0.2,4,8,Male,White,Not Hispanic or Latino,English,Lab,PA,2-8-2-8,21.905544151,Oct-2014,3,9,linear,0,0.15,R,1.1846,1,0.15,1,2,Male,White,Not Hispanic or Latino,English,Lab,PA,2-8-2-8,21.905544151,Oct-2014,3,9,linear,0,0.15,L,2.0353,0,0.15,3,2,Male,White,Not Hispanic or Latino,English,Lab,PA,2-8-2-8,21.905544151,Oct-2014,3,9,linear,0,0.1,L,1.2847,0,0.1,2,8,Male,White,Not Hispanic or Latino,English,Lab,PA,2-8-2-8,21.905544151,Oct-2014,3,9,linear,0,0.1,R,2.2019,1,0.1,4,8,Male,White,Not Hispanic or Latino,English,Lab,PA,2-8-2-8,21.905544151,Oct-2014,3,10,radial,0.05,0,R,1.785,0,0.05,1,2,Male,White,Not Hispanic or Latino,English,Lab,PA,2-8-2-8,21.905544151,Oct-2014,3,10,radial,0.05,0,R,1.2844,0,0.05,3,2,Male,White,Not Hispanic or Latino,English,Lab,PA,2-8-2-8,21.905544151,Oct-2014,3,10,radial,0.2,0,L,0.90095,1,0.2,2,8,Male,White,Not Hispanic or Latino,English,Lab,PA,2-8-2-8,21.905544151,Oct-2014,3,10,radial,0.2,0,L,0.83417,1,0.2,4,8,Male,White,Not Hispanic or Latino,English,Lab,PA,2-8-2-8,21.905544151,Oct-2014,3,11,radial,0.15,0,L,0.93435,1,0.15,1,2,Male,White,Not Hispanic or Latino,English,Lab,PA,2-8-2-8,21.905544151,Oct-2014,3,11,radial,0.15,0,L,1.0178,1,0.15,3,2,Male,White,Not Hispanic or Latino,English,Lab,PA,2-8-2-8,21.905544151,Oct-2014,3,11,linear,0.15,0,L,0.95106,1,0.15,2,8,Male,White,Not Hispanic or Latino,English,Lab,PA,2-8-2-8,21.905544151,Oct-2014,3,11,linear,0.15,0,L,1.0342,1,0.15,4,8,Male,White,Not Hispanic or Latino,English,Lab,PA,2-8-2-8,21.905544151,Oct-2014,3,12,radial,0,0.1,R,2.3186,1,0.1,1,2,Male,White,Not Hispanic or Latino,English,Lab,PA,2-8-2-8,21.905544151,Oct-2014,3,12,radial,0,0.1,L,1.9017,0,0.1,3,2,Male,White,Not Hispanic or Latino,English,Lab,PA,2-8-2-8,21.905544151,Oct-2014,3,12,linear,0.05,0,R,2.1355,0,0.05,2,8,Male,White,Not Hispanic or Latino,English,Lab,PA,2-8-2-8,21.905544151,Oct-2014,3,12,linear,0.05,0,R,1.0843,0,0.05,4,8,Male,White,Not Hispanic or Latino,English,Lab,PA,2-8-2-8,21.905544151,Oct-2014,3,13,radial,0.1,0,R,2.6191,0,0.1,1,2,Male,White,Not Hispanic or Latino,English,Lab,PA,2-8-2-8,21.905544151,Oct-2014,3,13,radial,0.1,0,R,2.7525,0,0.1,3,2,Male,White,Not Hispanic or Latino,English,Lab,PA,2-8-2-8,21.905544151,Oct-2014,3,13,linear,0,0.15,L,1.001,0,0.15,2,8,Male,White,Not Hispanic or Latino,English,Lab,PA,2-8-2-8,21.905544151,Oct-2014,3,13,linear,0,0.15,L,0.93417,0,0.15,4,8,Male,White,Not Hispanic or Latino,English,Lab,PA,2-8-2-8,21.905544151,Oct-2014,3,14,linear,0,0.1,L,1.8852,0,0.1,1,2,Male,White,Not Hispanic or Latino,English,Lab,PA,2-8-2-8,21.905544151,Oct-2014,3,14,linear,0,0.1,R,1.4346,1,0.1,3,2,Male,White,Not Hispanic or Latino,English,Lab,PA,2-8-2-8,21.905544151,Oct-2014,3,14,linear,0,0.2,R,1.351,1,0.2,2,8,Male,White,Not Hispanic or Latino,English,Lab,PA,2-8-2-8,21.905544151,Oct-2014,3,14,linear,0,0.2,R,1.001,1,0.2,4,8,Male,White,Not Hispanic or Latino,English,Lab,PA,2-8-2-8,21.905544151,Oct-2014,3,15,linear,0,0.05,L,1.1513,0,0.05,1,2,Male,White,Not Hispanic or Latino,English,Lab,PA,2-8-2-8,21.905544151,Oct-2014,3,15,linear,0,0.05,R,1.8515,1,0.05,3,2,Male,White,Not Hispanic or Latino,English,Lab,PA,2-8-2-8,21.905544151,Oct-2014,3,15,linear,0.1,0,L,2.0688,1,0.1,2,8,Male,White,Not Hispanic or Latino,English,Lab,PA,2-8-2-8,21.905544151,Oct-2014,3,15,linear,0.1,0,R,2.4519,0,0.1,4,8,Male,White,Not Hispanic or Latino,English,Lab,PA,2-8-2-8,21.905544151,Oct-2014,3,16,linear,0.15,0,L,1.062,1,0.15,1,2,Male,White,Not Hispanic or Latino,English,Lab,PA,2-8-2-8,21.905544151,Oct-2014,3,16,linear,0.15,0,L,1.0343,1,0.15,3,2,Male,White,Not Hispanic or Latino,English,Lab,PA,2-8-2-8,21.905544151,Oct-2014,3,16,linear,0,0.05,L,1.1347,0,0.05,2,8,Male,White,Not Hispanic or Latino,English,Lab,PA,2-8-2-8,21.905544151,Oct-2014,3,16,linear,0,0.05,R,2.1519,1,0.05,4,8,Male,White,Not Hispanic or Latino,English,Lab,PA,2-8-2-8,21.905544151,Oct-2014,4,1,linear,0.1,0,L,0.98631,1,0.1,1,2,Male,White,Not Hispanic or Latino,English,Lab,PA,2-8-2-8,21.905544151,Oct-2014,4,1,linear,0.1,0,L,3.72,1,0.1,3,2,Male,White,Not Hispanic or Latino,English,Lab,PA,2-8-2-8,21.905544151,Oct-2014,4,1,radial,0.15,0,L,2.6857,1,0.15,2,8,Male,White,Not Hispanic or Latino,English,Lab,PA,2-8-2-8,21.905544151,Oct-2014,4,1,radial,0.15,0,L,1.5915,1,0.15,4,8,Male,White,Not Hispanic or Latino,English,Lab,PA,2-8-2-8,21.905544151,Oct-2014,4,2,radial,0.2,0,L,1.4514,1,0.2,1,2,Male,White,Not Hispanic or Latino,English,Lab,PA,2-8-2-8,21.905544151,Oct-2014,4,2,radial,0.2,0,L,1.0176,1,0.2,3,2,Male,White,Not Hispanic or Latino,English,Lab,PA,2-8-2-8,21.905544151,Oct-2014,4,2,linear,0.2,0,L,1.2846,1,0.2,2,8,Male,White,Not Hispanic or Latino,English,Lab,PA,2-8-2-8,21.905544151,Oct-2014,4,2,linear,0.2,0,L,0.76747,1,0.2,4,8,Male,White,Not Hispanic or Latino,English,Lab,PA,2-8-2-8,21.905544151,Oct-2014,4,3,radial,0,0.05,R,2.6522,1,0.05,1,2,Male,White,Not Hispanic or Latino,English,Lab,PA,2-8-2-8,21.905544151,Oct-2014,4,3,radial,0,0.05,L,1.4347,0,0.05,3,2,Male,White,Not Hispanic or Latino,English,Lab,PA,2-8-2-8,21.905544151,Oct-2014,4,3,radial,0.1,0,R,2.6691,0,0.1,2,8,Male,White,Not Hispanic or Latino,English,Lab,PA,2-8-2-8,21.905544151,Oct-2014,4,3,radial,0.1,0,R,2.4886,0,0.1,4,8,Male,White,Not Hispanic or Latino,English,Lab,PA,2-8-2-8,21.905544151,Oct-2014,4,4,linear,0.2,0,L,0.86755,1,0.2,1,2,Male,White,Not Hispanic or Latino,English,Lab,PA,2-8-2-8,21.905544151,Oct-2014,4,4,linear,0.2,0,L,0.90088,1,0.2,3,2,Male,White,Not Hispanic or Latino,English,Lab,PA,2-8-2-8,21.905544151,Oct-2014,4,4,radial,0,0.15,L,1.9518,0,0.15,2,8,Male,White,Not Hispanic or Latino,English,Lab,PA,2-8-2-8,21.905544151,Oct-2014,4,4,radial,0,0.15,R,1.1345,1,0.15,4,8,Male,White,Not Hispanic or Latino,English,Lab,PA,2-8-2-8,21.905544151,Oct-2014,4,5,linear,0.05,0,R,1.7018,0,0.05,1,2,Male,White,Not Hispanic or Latino,English,Lab,PA,2-8-2-8,21.905544151,Oct-2014,4,5,linear,0.05,0,R,1.3349,0,0.05,3,2,Male,White,Not Hispanic or Latino,English,Lab,PA,2-8-2-8,21.905544151,Oct-2014,4,5,linear,0,0.1,R,2.0518,1,0.1,2,8,Male,White,Not Hispanic or Latino,English,Lab,PA,2-8-2-8,21.905544151,Oct-2014,4,5,linear,0,0.1,R,1.5682,1,0.1,4,8,Male,White,Not Hispanic or Latino,English,Lab,PA,2-8-2-8,21.905544151,Oct-2014,4,6,radial,0,0.2,R,1.1846,1,0.2,1,2,Male,White,Not Hispanic or Latino,English,Lab,PA,2-8-2-8,21.905544151,Oct-2014,4,6,radial,0,0.2,R,1.3533,1,0.2,3,2,Male,White,Not Hispanic or Latino,English,Lab,PA,2-8-2-8,21.905544151,Oct-2014,4,6,radial,0,0.2,R,0.93416,1,0.2,2,8,Male,White,Not Hispanic or Latino,English,Lab,PA,2-8-2-8,21.905544151,Oct-2014,4,6,radial,0,0.2,R,0.79248,1,0.2,4,8,Male,White,Not Hispanic or Latino,English,Lab,PA,2-8-2-8,21.905544151,Oct-2014,4,7,radial,0,0.15,L,0.96784,0,0.15,1,2,Male,White,Not Hispanic or Latino,English,Lab,PA,2-8-2-8,21.905544151,Oct-2014,4,7,radial,0,0.15,R,1.6035,1,0.15,3,2,Male,White,Not Hispanic or Latino,English,Lab,PA,2-8-2-8,21.905544151,Oct-2014,4,7,radial,0.05,0,L,3.7202,1,0.05,2,8,Male,White,Not Hispanic or Latino,English,Lab,PA,2-8-2-8,21.905544151,Oct-2014,4,7,radial,0.05,0,R,3.2361,0,0.05,4,8,Male,White,Not Hispanic or Latino,English,Lab,PA,2-8-2-8,21.905544151,Oct-2014,4,8,linear,0,0.2,R,1.8853,1,0.2,1,2,Male,White,Not Hispanic or Latino,English,Lab,PA,2-8-2-8,21.905544151,Oct-2014,4,8,linear,0,0.2,R,0.96778,1,0.2,3,2,Male,White,Not Hispanic or Latino,English,Lab,PA,2-8-2-8,21.905544151,Oct-2014,4,8,linear,0.15,0,L,1.101,1,0.15,2,8,Male,White,Not Hispanic or Latino,English,Lab,PA,2-8-2-8,21.905544151,Oct-2014,4,8,linear,0.15,0,L,0.75513,1,0.15,4,8,Male,White,Not Hispanic or Latino,English,Lab,PA,2-8-2-8,21.905544151,Oct-2014,4,9,linear,0,0.15,L,1.1676,0,0.15,1,2,Male,White,Not Hispanic or Latino,English,Lab,PA,2-8-2-8,21.905544151,Oct-2014,4,9,linear,0,0.15,R,1.601,1,0.15,3,2,Male,White,Not Hispanic or Latino,English,Lab,PA,2-8-2-8,21.905544151,Oct-2014,4,9,radial,0,0.1,L,1.8016,0,0.1,2,8,Male,White,Not Hispanic or Latino,English,Lab,PA,2-8-2-8,21.905544151,Oct-2014,4,9,radial,0,0.1,R,2.5357,1,0.1,4,8,Male,White,Not Hispanic or Latino,English,Lab,PA,2-8-2-8,21.905544151,Oct-2014,4,10,linear,0,0.1,R,1.9349,1,0.1,1,2,Male,White,Not Hispanic or Latino,English,Lab,PA,2-8-2-8,21.905544151,Oct-2014,4,10,linear,0,0.1,L,1.5345,0,0.1,3,2,Male,White,Not Hispanic or Latino,English,Lab,PA,2-8-2-8,21.905544151,Oct-2014,4,10,radial,0,0.05,L,1.9684,0,0.05,2,8,Male,White,Not Hispanic or Latino,English,Lab,PA,2-8-2-8,21.905544151,Oct-2014,4,10,radial,0,0.05,R,1.1844,1,0.05,4,8,Male,White,Not Hispanic or Latino,English,Lab,PA,2-8-2-8,21.905544151,Oct-2014,4,11,radial,0.05,0,L,1.8351,1,0.05,1,2,Male,White,Not Hispanic or Latino,English,Lab,PA,2-8-2-8,21.905544151,Oct-2014,4,11,radial,0.05,0,L,2.7527,1,0.05,3,2,Male,White,Not Hispanic or Latino,English,Lab,PA,2-8-2-8,21.905544151,Oct-2014,4,11,radial,0.2,0,L,0.93455,1,0.2,2,8,Male,White,Not Hispanic or Latino,English,Lab,PA,2-8-2-8,21.905544151,Oct-2014,4,11,radial,0.2,0,L,1.0179,1,0.2,4,8,Male,White,Not Hispanic or Latino,English,Lab,PA,2-8-2-8,21.905544151,Oct-2014,4,12,linear,0,0.05,R,1.4016,1,0.05,1,2,Male,White,Not Hispanic or Latino,English,Lab,PA,2-8-2-8,21.905544151,Oct-2014,4,12,linear,0,0.05,R,2.2884,1,0.05,3,2,Male,White,Not Hispanic or Latino,English,Lab,PA,2-8-2-8,21.905544151,Oct-2014,4,12,linear,0.05,0,L,2.8885,1,0.05,2,8,Male,White,Not Hispanic or Latino,English,Lab,PA,2-8-2-8,21.905544151,Oct-2014,4,12,linear,0.05,0,L,2.7691,1,0.05,4,8,Male,White,Not Hispanic or Latino,English,Lab,PA,2-8-2-8,21.905544151,Oct-2014,4,13,radial,0.15,0,L,1.7512,1,0.15,1,2,Male,White,Not Hispanic or Latino,English,Lab,PA,2-8-2-8,21.905544151,Oct-2014,4,13,radial,0.15,0,L,1.8187,1,0.15,3,2,Male,White,Not Hispanic or Latino,English,Lab,PA,2-8-2-8,21.905544151,Oct-2014,4,13,linear,0,0.15,R,1.3756,1,0.15,2,8,Male,White,Not Hispanic or Latino,English,Lab,PA,2-8-2-8,21.905544151,Oct-2014,4,13,linear,0,0.15,R,2.5856,1,0.15,4,8,Male,White,Not Hispanic or Latino,English,Lab,PA,2-8-2-8,21.905544151,Oct-2014,4,14,linear,0.15,0,R,3.0691,0,0.15,1,2,Male,White,Not Hispanic or Latino,English,Lab,PA,2-8-2-8,21.905544151,Oct-2014,4,14,linear,0.15,0,L,0.96766,1,0.15,3,2,Male,White,Not Hispanic or Latino,English,Lab,PA,2-8-2-8,21.905544151,Oct-2014,4,14,linear,0,0.2,R,1.6014,1,0.2,2,8,Male,White,Not Hispanic or Latino,English,Lab,PA,2-8-2-8,21.905544151,Oct-2014,4,14,linear,0,0.2,R,0.88431,1,0.2,4,8,Male,White,Not Hispanic or Latino,English,Lab,PA,2-8-2-8,21.905544151,Oct-2014,4,15,radial,0,0.1,R,2.1204,1,0.1,1,2,Male,White,Not Hispanic or Latino,English,Lab,PA,2-8-2-8,21.905544151,Oct-2014,4,15,radial,0,0.1,L,1.4008,0,0.1,3,2,Male,White,Not Hispanic or Latino,English,Lab,PA,2-8-2-8,21.905544151,Oct-2014,4,15,linear,0.1,0,L,1.2511,1,0.1,2,8,Male,White,Not Hispanic or Latino,English,Lab,PA,2-8-2-8,21.905544151,Oct-2014,4,15,linear,0.1,0,L,0.96781,1,0.1,4,8,Male,White,Not Hispanic or Latino,English,Lab,PA,2-8-2-8,21.905544151,Oct-2014,4,16,radial,0.1,0,L,2.5859,1,0.1,1,2,Male,White,Not Hispanic or Latino,English,Lab,PA,2-8-2-8,21.905544151,Oct-2014,4,16,radial,0.1,0,L,2.3188,1,0.1,3,2,Male,White,Not Hispanic or Latino,English,Lab,PA,2-8-2-8,21.905544151,Oct-2014,4,16,linear,0,0.05,R,2.4764,1,0.05,2,8,Male,White,Not Hispanic or Latino,English,Lab,PA,2-8-2-8,21.905544151,Oct-2014,4,16,linear,0,0.05,R,1.7682,1,0.05,4,8,Male,White,Not Hispanic or Latino,English,Lab,PA,2-8-2-8,21.905544151,Oct-2014,5,1,radial,0.2,0,L,0.81775,1,0.2,1,2,Male,White,Not Hispanic or Latino,English,Lab,PA,2-8-2-8,21.905544151,Oct-2014,5,1,radial,0.2,0,L,1.1347,1,0.2,3,2,Male,White,Not Hispanic or Latino,English,Lab,PA,2-8-2-8,21.905544151,Oct-2014,5,1,linear,0.2,0,L,0.76737,1,0.2,2,8,Male,White,Not Hispanic or Latino,English,Lab,PA,2-8-2-8,21.905544151,Oct-2014,5,1,linear,0.2,0,L,0.93419,1,0.2,4,8,Male,White,Not Hispanic or Latino,English,Lab,PA,2-8-2-8,21.905544151,Oct-2014,5,2,linear,0.1,0,R,2.0029,0,0.1,1,2,Male,White,Not Hispanic or Latino,English,Lab,PA,2-8-2-8,21.905544151,Oct-2014,5,2,linear,0.1,0,R,1.2702,0,0.1,3,2,Male,White,Not Hispanic or Latino,English,Lab,PA,2-8-2-8,21.905544151,Oct-2014,5,2,radial,0.15,0,L,1.168,1,0.15,2,8,Male,White,Not Hispanic or Latino,English,Lab,PA,2-8-2-8,21.905544151,Oct-2014,5,2,radial,0.15,0,L,1.0675,1,0.15,4,8,Male,White,Not Hispanic or Latino,English,Lab,PA,2-8-2-8,21.905544151,Oct-2014,5,3,linear,0.2,0,L,0.90114,1,0.2,1,2,Male,White,Not Hispanic or Latino,English,Lab,PA,2-8-2-8,21.905544151,Oct-2014,5,3,linear,0.2,0,L,0.8176,1,0.2,3,2,Male,White,Not Hispanic or Latino,English,Lab,PA,2-8-2-8,21.905544151,Oct-2014,5,3,linear,0,0.1,L,1.2348,0,0.1,2,8,Male,White,Not Hispanic or Latino,English,Lab,PA,2-8-2-8,21.905544151,Oct-2014,5,3,linear,0,0.1,R,1.3011,1,0.1,4,8,Male,White,Not Hispanic or Latino,English,Lab,PA,2-8-2-8,21.905544151,Oct-2014,5,4,radial,0,0.05,R,1.2349,1,0.05,1,2,Male,White,Not Hispanic or Latino,English,Lab,PA,2-8-2-8,21.905544151,Oct-2014,5,4,radial,0,0.05,L,1.3177,0,0.05,3,2,Male,White,Not Hispanic or Latino,English,Lab,PA,2-8-2-8,21.905544151,Oct-2014,5,4,radial,0.1,0,L,1.8849,1,0.1,2,8,Male,White,Not Hispanic or Latino,English,Lab,PA,2-8-2-8,21.905544151,Oct-2014,5,4,radial,0.1,0,L,1.2847,1,0.1,4,8,Male,White,Not Hispanic or Latino,English,Lab,PA,2-8-2-8,21.905544151,Oct-2014,5,5,radial,0,0.2,R,1.4548,1,0.2,1,2,Male,White,Not Hispanic or Latino,English,Lab,PA,2-8-2-8,21.905544151,Oct-2014,5,5,radial,0,0.2,R,0.90088,1,0.2,3,2,Male,White,Not Hispanic or Latino,English,Lab,PA,2-8-2-8,21.905544151,Oct-2014,5,5,linear,0.15,0,L,1.3012,1,0.15,2,8,Male,White,Not Hispanic or Latino,English,Lab,PA,2-8-2-8,21.905544151,Oct-2014,5,5,linear,0.15,0,L,0.93407,1,0.15,4,8,Male,White,Not Hispanic or Latino,English,Lab,PA,2-8-2-8,21.905544151,Oct-2014,5,6,linear,0.05,0,L,1.735,1,0.05,1,2,Male,White,Not Hispanic or Latino,English,Lab,PA,2-8-2-8,21.905544151,Oct-2014,5,6,linear,0.05,0,R,1.5846,0,0.05,3,2,Male,White,Not Hispanic or Latino,English,Lab,PA,2-8-2-8,21.905544151,Oct-2014,5,6,radial,0,0.15,L,1.1177,0,0.15,2,8,Male,White,Not Hispanic or Latino,English,Lab,PA,2-8-2-8,21.905544151,Oct-2014,5,6,radial,0,0.15,R,1.235,1,0.15,4,8,Male,White,Not Hispanic or Latino,English,Lab,PA,2-8-2-8,21.905544151,Oct-2014,5,7,linear,0,0.2,R,2.1192,1,0.2,1,2,Male,White,Not Hispanic or Latino,English,Lab,PA,2-8-2-8,21.905544151,Oct-2014,5,7,linear,0,0.2,R,1.0509,1,0.2,3,2,Male,White,Not Hispanic or Latino,English,Lab,PA,2-8-2-8,21.905544151,Oct-2014,5,7,radial,0,0.2,R,0.91767,1,0.2,2,8,Male,White,Not Hispanic or Latino,English,Lab,PA,2-8-2-8,21.905544151,Oct-2014,5,7,radial,0,0.2,R,0.95087,1,0.2,4,8,Male,White,Not Hispanic or Latino,English,Lab,PA,2-8-2-8,21.905544151,Oct-2014,5,8,radial,0,0.15,R,1.2176,1,0.15,1,2,Male,White,Not Hispanic or Latino,English,Lab,PA,2-8-2-8,21.905544151,Oct-2014,5,8,radial,0,0.15,R,1.2697,1,0.15,3,2,Male,White,Not Hispanic or Latino,English,Lab,PA,2-8-2-8,21.905544151,Oct-2014,5,8,radial,0.05,0,L,3.72,1,0.05,2,8,Male,White,Not Hispanic or Latino,English,Lab,PA,2-8-2-8,21.905544151,Oct-2014,5,8,radial,0.05,0,R,2.6691,0,0.05,4,8,Male,White,Not Hispanic or Latino,English,Lab,PA,2-8-2-8,21.905544151,Oct-2014,5,9,radial,0.05,0,R,2.9192,0,0.05,1,2,Male,White,Not Hispanic or Latino,English,Lab,PA,2-8-2-8,21.905544151,Oct-2014,5,9,radial,0.05,0,L,1.7684,1,0.05,3,2,Male,White,Not Hispanic or Latino,English,Lab,PA,2-8-2-8,21.905544151,Oct-2014,5,9,linear,0.05,0,L,1.2011,1,0.05,2,8,Male,White,Not Hispanic or Latino,English,Lab,PA,2-8-2-8,21.905544151,Oct-2014,5,9,linear,0.05,0,L,1.0008,1,0.05,4,8,Male,White,Not Hispanic or Latino,English,Lab,PA,2-8-2-8,21.905544151,Oct-2014,5,10,radial,0.15,0,L,1.135,1,0.15,1,2,Male,White,Not Hispanic or Latino,English,Lab,PA,2-8-2-8,21.905544151,Oct-2014,5,10,radial,0.15,0,L,2.5307,1,0.15,3,2,Male,White,Not Hispanic or Latino,English,Lab,PA,2-8-2-8,21.905544151,Oct-2014,5,10,linear,0,0.15,R,2.5082,1,0.15,2,8,Male,White,Not Hispanic or Latino,English,Lab,PA,2-8-2-8,21.905544151,Oct-2014,5,10,linear,0,0.15,R,1.6012,1,0.15,4,8,Male,White,Not Hispanic or Latino,English,Lab,PA,2-8-2-8,21.905544151,Oct-2014,5,11,radial,0,0.1,L,2.9196,0,0.1,1,2,Male,White,Not Hispanic or Latino,English,Lab,PA,2-8-2-8,21.905544151,Oct-2014,5,11,radial,0,0.1,L,1.3352,0,0.1,3,2,Male,White,Not Hispanic or Latino,English,Lab,PA,2-8-2-8,21.905544151,Oct-2014,5,11,linear,0,0.2,R,1.0915,1,0.2,2,8,Male,White,Not Hispanic or Latino,English,Lab,PA,2-8-2-8,21.905544151,Oct-2014,5,11,linear,0,0.2,R,1.3392,1,0.2,4,8,Male,White,Not Hispanic or Latino,English,Lab,PA,2-8-2-8,21.905544151,Oct-2014,5,12,radial,0.1,0,L,1.8184,1,0.1,1,2,Male,White,Not Hispanic or Latino,English,Lab,PA,2-8-2-8,21.905544151,Oct-2014,5,12,radial,0.1,0,R,1.3176,0,0.1,3,2,Male,White,Not Hispanic or Latino,English,Lab,PA,2-8-2-8,21.905544151,Oct-2014,5,12,radial,0,0.1,R,1.5347,1,0.1,2,8,Male,White,Not Hispanic or Latino,English,Lab,PA,2-8-2-8,21.905544151,Oct-2014,5,12,radial,0,0.1,R,4.2703,1,0.1,4,8,Male,White,Not Hispanic or Latino,English,Lab,PA,2-8-2-8,21.905544151,Oct-2014,5,13,linear,0,0.15,R,1.6184,1,0.15,1,2,Male,White,Not Hispanic or Latino,English,Lab,PA,2-8-2-8,21.905544151,Oct-2014,5,13,linear,0,0.15,R,1.0178,1,0.15,3,2,Male,White,Not Hispanic or Latino,English,Lab,PA,2-8-2-8,21.905544151,Oct-2014,5,13,radial,0,0.05,R,2.0354,1,0.05,2,8,Male,White,Not Hispanic or Latino,English,Lab,PA,2-8-2-8,21.905544151,Oct-2014,5,13,radial,0,0.05,R,1.2257,1,0.05,4,8,Male,White,Not Hispanic or Latino,English,Lab,PA,2-8-2-8,21.905544151,Oct-2014,5,14,linear,0,0.1,R,2.4521,1,0.1,1,2,Male,White,Not Hispanic or Latino,English,Lab,PA,2-8-2-8,21.905544151,Oct-2014,5,14,linear,0,0.1,R,1.4343,1,0.1,3,2,Male,White,Not Hispanic or Latino,English,Lab,PA,2-8-2-8,21.905544151,Oct-2014,5,14,linear,0.1,0,L,1.0175,1,0.1,2,8,Male,White,Not Hispanic or Latino,English,Lab,PA,2-8-2-8,21.905544151,Oct-2014,5,14,linear,0.1,0,L,1.3179,1,0.1,4,8,Male,White,Not Hispanic or Latino,English,Lab,PA,2-8-2-8,21.905544151,Oct-2014,5,15,linear,0,0.05,R,2.1519,1,0.05,1,2,Male,White,Not Hispanic or Latino,English,Lab,PA,2-8-2-8,21.905544151,Oct-2014,5,15,linear,0,0.05,R,1.902,1,0.05,3,2,Male,White,Not Hispanic or Latino,English,Lab,PA,2-8-2-8,21.905544151,Oct-2014,5,15,radial,0.2,0,L,0.68814,1,0.2,2,8,Male,White,Not Hispanic or Latino,English,Lab,PA,2-8-2-8,21.905544151,Oct-2014,5,15,radial,0.2,0,L,0.91764,1,0.2,4,8,Male,White,Not Hispanic or Latino,English,Lab,PA,2-8-2-8,21.905544151,Oct-2014,5,16,linear,0.15,0,L,0.86788,1,0.15,1,2,Male,White,Not Hispanic or Latino,English,Lab,PA,2-8-2-8,21.905544151,Oct-2014,5,16,linear,0.15,0,L,1.0676,1,0.15,3,2,Male,White,Not Hispanic or Latino,English,Lab,PA,2-8-2-8,21.905544151,Oct-2014,5,16,linear,0,0.05,R,1.6682,1,0.05,2,8,Male,White,Not Hispanic or Latino,English,Lab,PA,2-8-2-8,21.905544151,Oct-2014,5,16,linear,0,0.05,R,1.4845,1,0.05,4,8,Male,White,Not Hispanic or Latino,English,Lab,PA,2-8-2-8,21.905544152,Nov-2014,1,1,linear,0.1,0,L,6.6108,1,0.1,1,2,Male,Asian,Not Hispanic or Latino,English,Lab,PA,2-8-8-2,20.6789872,Nov-2014,1,1,linear,0.1,0,L,1.9181,1,0.1,4,2,Male,Asian,Not Hispanic or Latino,English,Lab,PA,2-8-8-2,20.6789872,Nov-2014,1,1,radial,0.15,0,L,1.2678,1,0.15,2,8,Male,Asian,Not Hispanic or Latino,English,Lab,PA,2-8-8-2,20.6789872,Nov-2014,1,1,radial,0.15,0,L,1.4514,1,0.15,3,8,Male,Asian,Not Hispanic or Latino,English,Lab,PA,2-8-8-2,20.6789872,Nov-2014,1,2,linear,0.2,0,L,2.069,1,0.2,1,2,Male,Asian,Not Hispanic or Latino,English,Lab,PA,2-8-8-2,20.6789872,Nov-2014,1,2,linear,0.2,0,L,0.734,1,0.2,4,2,Male,Asian,Not Hispanic or Latino,English,Lab,PA,2-8-8-2,20.6789872,Nov-2014,1,2,radial,0.1,0,R,1.0247,0,0.1,2,8,Male,Asian,Not Hispanic or Latino,English,Lab,PA,2-8-8-2,20.6789872,Nov-2014,1,2,radial,0.1,0,R,2.1018,0,0.1,3,8,Male,Asian,Not Hispanic or Latino,English,Lab,PA,2-8-8-2,20.6789872,Nov-2014,1,3,radial,0.2,0,L,2.0518,1,0.2,1,2,Male,Asian,Not Hispanic or Latino,English,Lab,PA,2-8-8-2,20.6789872,Nov-2014,1,3,radial,0.2,0,L,0.86756,1,0.2,4,2,Male,Asian,Not Hispanic or Latino,English,Lab,PA,2-8-8-2,20.6789872,Nov-2014,1,3,radial,0,0.15,R,1.5014,1,0.15,2,8,Male,Asian,Not Hispanic or Latino,English,Lab,PA,2-8-8-2,20.6789872,Nov-2014,1,3,radial,0,0.15,R,1.5513,1,0.15,3,8,Male,Asian,Not Hispanic or Latino,English,Lab,PA,2-8-8-2,20.6789872,Nov-2014,1,4,linear,0.05,0,L,2.3186,1,0.05,1,2,Male,Asian,Not Hispanic or Latino,English,Lab,PA,2-8-8-2,20.6789872,Nov-2014,1,4,linear,0.05,0,L,2.6024,1,0.05,4,2,Male,Asian,Not Hispanic or Latino,English,Lab,PA,2-8-8-2,20.6789872,Nov-2014,1,4,radial,0,0.2,R,1.1213,1,0.2,2,8,Male,Asian,Not Hispanic or Latino,English,Lab,PA,2-8-8-2,20.6789872,Nov-2014,1,4,radial,0,0.2,R,2.5357,1,0.2,3,8,Male,Asian,Not Hispanic or Latino,English,Lab,PA,2-8-8-2,20.6789872,Nov-2014,1,5,linear,0,0.2,L,4.8548,0,0.2,1,2,Male,Asian,Not Hispanic or Latino,English,Lab,PA,2-8-8-2,20.6789872,Nov-2014,1,5,linear,0,0.2,R,0.93424,1,0.2,4,2,Male,Asian,Not Hispanic or Latino,English,Lab,PA,2-8-8-2,20.6789872,Nov-2014,1,5,radial,0.05,0,R,2.5356,0,0.05,2,8,Male,Asian,Not Hispanic or Latino,English,Lab,PA,2-8-8-2,20.6789872,Nov-2014,1,5,radial,0.05,0,L,2.1019,1,0.05,3,8,Male,Asian,Not Hispanic or Latino,English,Lab,PA,2-8-8-2,20.6789872,Nov-2014,1,6,radial,0,0.05,L,2.6022,0,0.05,1,2,Male,Asian,Not Hispanic or Latino,English,Lab,PA,2-8-8-2,20.6789872,Nov-2014,1,6,radial,0,0.05,L,2.7023,0,0.05,4,2,Male,Asian,Not Hispanic or Latino,English,Lab,PA,2-8-8-2,20.6789872,Nov-2014,1,6,linear,0.2,0,L,1.5179,1,0.2,2,8,Male,Asian,Not Hispanic or Latino,English,Lab,PA,2-8-8-2,20.6789872,Nov-2014,1,6,linear,0.2,0,L,0.75089,1,0.2,3,8,Male,Asian,Not Hispanic or Latino,English,Lab,PA,2-8-8-2,20.6789872,Nov-2014,1,7,radial,0,0.2,R,2.6208,1,0.2,1,2,Male,Asian,Not Hispanic or Latino,English,Lab,PA,2-8-8-2,20.6789872,Nov-2014,1,7,radial,0,0.2,R,1.0514,1,0.2,4,2,Male,Asian,Not Hispanic or Latino,English,Lab,PA,2-8-8-2,20.6789872,Nov-2014,1,7,linear,0,0.1,R,2.819,1,0.1,2,8,Male,Asian,Not Hispanic or Latino,English,Lab,PA,2-8-8-2,20.6789872,Nov-2014,1,7,linear,0,0.1,R,0.96769,1,0.1,3,8,Male,Asian,Not Hispanic or Latino,English,Lab,PA,2-8-8-2,20.6789872,Nov-2014,1,8,linear,0,0.15,R,1.9017,1,0.15,1,2,Male,Asian,Not Hispanic or Latino,English,Lab,PA,2-8-8-2,20.6789872,Nov-2014,1,8,linear,0,0.15,R,2.4855,1,0.15,4,2,Male,Asian,Not Hispanic or Latino,English,Lab,PA,2-8-8-2,20.6789872,Nov-2014,1,8,linear,0.15,0,R,2.4021,0,0.15,2,8,Male,Asian,Not Hispanic or Latino,English,Lab,PA,2-8-8-2,20.6789872,Nov-2014,1,8,linear,0.15,0,L,0.71743,1,0.15,3,8,Male,Asian,Not Hispanic or Latino,English,Lab,PA,2-8-8-2,20.6789872,Nov-2014,1,9,radial,0,0.15,L,2.9868,0,0.15,1,2,Male,Asian,Not Hispanic or Latino,English,Lab,PA,2-8-8-2,20.6789872,Nov-2014,1,9,radial,0,0.15,R,1.1344,1,0.15,4,2,Male,Asian,Not Hispanic or Latino,English,Lab,PA,2-8-8-2,20.6789872,Nov-2014,1,9,radial,0,0.1,R,1.2009,1,0.1,2,8,Male,Asian,Not Hispanic or Latino,English,Lab,PA,2-8-8-2,20.6789872,Nov-2014,1,9,radial,0,0.1,R,1.139,1,0.1,3,8,Male,Asian,Not Hispanic or Latino,English,Lab,PA,2-8-8-2,20.6789872,Nov-2014,1,10,linear,0,0.1,R,4.9373,1,0.1,1,2,Male,Asian,Not Hispanic or Latino,English,Lab,PA,2-8-8-2,20.6789872,Nov-2014,1,10,linear,0,0.1,R,2.4188,1,0.1,4,2,Male,Asian,Not Hispanic or Latino,English,Lab,PA,2-8-8-2,20.6789872,Nov-2014,1,10,linear,0.05,0,L,2.5022,1,0.05,2,8,Male,Asian,Not Hispanic or Latino,English,Lab,PA,2-8-8-2,20.6789872,Nov-2014,1,10,linear,0.05,0,L,1.4347,1,0.05,3,8,Male,Asian,Not Hispanic or Latino,English,Lab,PA,2-8-8-2,20.6789872,Nov-2014,1,11,radial,0.05,0,R,3.2694,0,0.05,1,2,Male,Asian,Not Hispanic or Latino,English,Lab,PA,2-8-8-2,20.6789872,Nov-2014,1,11,radial,0.05,0,L,2.4356,1,0.05,4,2,Male,Asian,Not Hispanic or Latino,English,Lab,PA,2-8-8-2,20.6789872,Nov-2014,1,11,radial,0,0.05,R,2.6358,1,0.05,2,8,Male,Asian,Not Hispanic or Latino,English,Lab,PA,2-8-8-2,20.6789872,Nov-2014,1,11,radial,0,0.05,R,1.2011,1,0.05,3,8,Male,Asian,Not Hispanic or Latino,English,Lab,PA,2-8-8-2,20.6789872,Nov-2014,1,12,linear,0,0.05,L,5.0876,0,0.05,1,2,Male,Asian,Not Hispanic or Latino,English,Lab,PA,2-8-8-2,20.6789872,Nov-2014,1,12,linear,0,0.05,R,2.4022,1,0.05,4,2,Male,Asian,Not Hispanic or Latino,English,Lab,PA,2-8-8-2,20.6789872,Nov-2014,1,12,radial,0.2,0,L,0.76736,1,0.2,2,8,Male,Asian,Not Hispanic or Latino,English,Lab,PA,2-8-8-2,20.6789872,Nov-2014,1,12,radial,0.2,0,L,0.83414,1,0.2,3,8,Male,Asian,Not Hispanic or Latino,English,Lab,PA,2-8-8-2,20.6789872,Nov-2014,1,13,radial,0.15,0,L,4.604,1,0.15,1,2,Male,Asian,Not Hispanic or Latino,English,Lab,PA,2-8-8-2,20.6789872,Nov-2014,1,13,radial,0.15,0,L,0.78415,1,0.15,4,2,Male,Asian,Not Hispanic or Latino,English,Lab,PA,2-8-8-2,20.6789872,Nov-2014,1,13,linear,0,0.15,R,1.7182,1,0.15,2,8,Male,Asian,Not Hispanic or Latino,English,Lab,PA,2-8-8-2,20.6789872,Nov-2014,1,13,linear,0,0.15,R,1.101,1,0.15,3,8,Male,Asian,Not Hispanic or Latino,English,Lab,PA,2-8-8-2,20.6789872,Nov-2014,1,14,linear,0.15,0,L,3.3363,1,0.15,1,2,Male,Asian,Not Hispanic or Latino,English,Lab,PA,2-8-8-2,20.6789872,Nov-2014,1,14,linear,0.15,0,L,0.7508,1,0.15,4,2,Male,Asian,Not Hispanic or Latino,English,Lab,PA,2-8-8-2,20.6789872,Nov-2014,1,14,linear,0,0.2,R,1.1508,1,0.2,2,8,Male,Asian,Not Hispanic or Latino,English,Lab,PA,2-8-8-2,20.6789872,Nov-2014,1,14,linear,0,0.2,R,0.9023,1,0.2,3,8,Male,Asian,Not Hispanic or Latino,English,Lab,PA,2-8-8-2,20.6789872,Nov-2014,1,15,radial,0,0.1,L,5.7551,0,0.1,1,2,Male,Asian,Not Hispanic or Latino,English,Lab,PA,2-8-8-2,20.6789872,Nov-2014,1,15,radial,0,0.1,R,1.2405,1,0.1,4,2,Male,Asian,Not Hispanic or Latino,English,Lab,PA,2-8-8-2,20.6789872,Nov-2014,1,15,linear,0.1,0,R,2.0367,0,0.1,2,8,Male,Asian,Not Hispanic or Latino,English,Lab,PA,2-8-8-2,20.6789872,Nov-2014,1,15,linear,0.1,0,L,1.0009,1,0.1,3,8,Male,Asian,Not Hispanic or Latino,English,Lab,PA,2-8-8-2,20.6789872,Nov-2014,1,16,radial,0.1,0,R,4.0536,0,0.1,1,2,Male,Asian,Not Hispanic or Latino,English,Lab,PA,2-8-8-2,20.6789872,Nov-2014,1,16,radial,0.1,0,L,2.3854,1,0.1,4,2,Male,Asian,Not Hispanic or Latino,English,Lab,PA,2-8-8-2,20.6789872,Nov-2014,1,16,linear,0,0.05,R,2.2856,1,0.05,2,8,Male,Asian,Not Hispanic or Latino,English,Lab,PA,2-8-8-2,20.6789872,Nov-2014,1,16,linear,0,0.05,R,1.2749,1,0.05,3,8,Male,Asian,Not Hispanic or Latino,English,Lab,PA,2-8-8-2,20.6789872,Nov-2014,2,1,radial,0.2,0,L,1.4516,1,0.2,1,2,Male,Asian,Not Hispanic or Latino,English,Lab,PA,2-8-8-2,20.6789872,Nov-2014,2,1,radial,0.2,0,L,0.66737,1,0.2,4,2,Male,Asian,Not Hispanic or Latino,English,Lab,PA,2-8-8-2,20.6789872,Nov-2014,2,1,linear,0.2,0,L,0.81758,1,0.2,2,8,Male,Asian,Not Hispanic or Latino,English,Lab,PA,2-8-8-2,20.6789872,Nov-2014,2,1,linear,0.2,0,L,0.61732,1,0.2,3,8,Male,Asian,Not Hispanic or Latino,English,Lab,PA,2-8-8-2,20.6789872,Nov-2014,2,2,linear,0.1,0,L,3.1531,1,0.1,1,2,Male,Asian,Not Hispanic or Latino,English,Lab,PA,2-8-8-2,20.6789872,Nov-2014,2,2,linear,0.1,0,R,2.5689,0,0.1,4,2,Male,Asian,Not Hispanic or Latino,English,Lab,PA,2-8-8-2,20.6789872,Nov-2014,2,2,radial,0.15,0,L,1.2176,1,0.15,2,8,Male,Asian,Not Hispanic or Latino,English,Lab,PA,2-8-8-2,20.6789872,Nov-2014,2,2,radial,0.15,0,L,1.1885,1,0.15,3,8,Male,Asian,Not Hispanic or Latino,English,Lab,PA,2-8-8-2,20.6789872,Nov-2014,2,3,linear,0.2,0,L,2.4855,1,0.2,1,2,Male,Asian,Not Hispanic or Latino,English,Lab,PA,2-8-8-2,20.6789872,Nov-2014,2,3,linear,0.2,0,L,0.85096,1,0.2,4,2,Male,Asian,Not Hispanic or Latino,English,Lab,PA,2-8-8-2,20.6789872,Nov-2014,2,3,linear,0,0.1,R,3.5364,1,0.1,2,8,Male,Asian,Not Hispanic or Latino,English,Lab,PA,2-8-8-2,20.6789872,Nov-2014,2,3,linear,0,0.1,R,1.418,1,0.1,3,8,Male,Asian,Not Hispanic or Latino,English,Lab,PA,2-8-8-2,20.6789872,Nov-2014,2,4,linear,0.05,0,R,4.5871,0,0.05,1,2,Male,Asian,Not Hispanic or Latino,English,Lab,PA,2-8-8-2,20.6789872,Nov-2014,2,4,linear,0.05,0,R,2.2853,0,0.05,4,2,Male,Asian,Not Hispanic or Latino,English,Lab,PA,2-8-8-2,20.6789872,Nov-2014,2,4,radial,0.1,0,L,1.5348,1,0.1,2,8,Male,Asian,Not Hispanic or Latino,English,Lab,PA,2-8-8-2,20.6789872,Nov-2014,2,4,radial,0.1,0,L,1.1011,1,0.1,3,8,Male,Asian,Not Hispanic or Latino,English,Lab,PA,2-8-8-2,20.6789872,Nov-2014,2,5,linear,0,0.2,R,3.3532,1,0.2,1,2,Male,Asian,Not Hispanic or Latino,English,Lab,PA,2-8-8-2,20.6789872,Nov-2014,2,5,linear,0,0.2,R,0.78394,1,0.2,4,2,Male,Asian,Not Hispanic or Latino,English,Lab,PA,2-8-8-2,20.6789872,Nov-2014,2,5,radial,0,0.15,L,1.106,0,0.15,2,8,Male,Asian,Not Hispanic or Latino,English,Lab,PA,2-8-8-2,20.6789872,Nov-2014,2,5,radial,0,0.15,L,0.9194,0,0.15,3,8,Male,Asian,Not Hispanic or Latino,English,Lab,PA,2-8-8-2,20.6789872,Nov-2014,2,6,radial,0,0.05,L,3.4028,0,0.05,1,2,Male,Asian,Not Hispanic or Latino,English,Lab,PA,2-8-8-2,20.6789872,Nov-2014,2,6,radial,0,0.05,R,1.2612,1,0.05,4,2,Male,Asian,Not Hispanic or Latino,English,Lab,PA,2-8-8-2,20.6789872,Nov-2014,2,6,linear,0.15,0,L,1.1896,1,0.15,2,8,Male,Asian,Not Hispanic or Latino,English,Lab,PA,2-8-8-2,20.6789872,Nov-2014,2,6,linear,0.15,0,L,0.9675,1,0.15,3,8,Male,Asian,Not Hispanic or Latino,English,Lab,PA,2-8-8-2,20.6789872,Nov-2014,2,7,radial,0,0.2,R,2.2358,1,0.2,1,2,Male,Asian,Not Hispanic or Latino,English,Lab,PA,2-8-8-2,20.6789872,Nov-2014,2,7,radial,0,0.2,R,1.2412,1,0.2,4,2,Male,Asian,Not Hispanic or Latino,English,Lab,PA,2-8-8-2,20.6789872,Nov-2014,2,7,radial,0,0.2,R,0.99233,1,0.2,2,8,Male,Asian,Not Hispanic or Latino,English,Lab,PA,2-8-8-2,20.6789872,Nov-2014,2,7,radial,0,0.2,R,1.0342,1,0.2,3,8,Male,Asian,Not Hispanic or Latino,English,Lab,PA,2-8-8-2,20.6789872,Nov-2014,2,8,linear,0,0.15,R,2.3858,1,0.15,1,2,Male,Asian,Not Hispanic or Latino,English,Lab,PA,2-8-8-2,20.6789872,Nov-2014,2,8,linear,0,0.15,R,0.81743,1,0.15,4,2,Male,Asian,Not Hispanic or Latino,English,Lab,PA,2-8-8-2,20.6789872,Nov-2014,2,8,radial,0.05,0,R,1.4016,0,0.05,2,8,Male,Asian,Not Hispanic or Latino,English,Lab,PA,2-8-8-2,20.6789872,Nov-2014,2,8,radial,0.05,0,L,1.1752,1,0.05,3,8,Male,Asian,Not Hispanic or Latino,English,Lab,PA,2-8-8-2,20.6789872,Nov-2014,2,9,linear,0,0.1,R,3.2532,1,0.1,1,2,Male,Asian,Not Hispanic or Latino,English,Lab,PA,2-8-8-2,20.6789872,Nov-2014,2,9,linear,0,0.1,R,1.0198,1,0.1,4,2,Male,Asian,Not Hispanic or Latino,English,Lab,PA,2-8-8-2,20.6789872,Nov-2014,2,9,radial,0,0.1,R,1.5179,1,0.1,2,8,Male,Asian,Not Hispanic or Latino,English,Lab,PA,2-8-8-2,20.6789872,Nov-2014,2,9,radial,0,0.1,R,1.1074,1,0.1,3,8,Male,Asian,Not Hispanic or Latino,English,Lab,PA,2-8-8-2,20.6789872,Nov-2014,2,10,radial,0,0.15,R,1.418,1,0.15,1,2,Male,Asian,Not Hispanic or Latino,English,Lab,PA,2-8-8-2,20.6789872,Nov-2014,2,10,radial,0,0.15,R,1.0357,1,0.15,4,2,Male,Asian,Not Hispanic or Latino,English,Lab,PA,2-8-8-2,20.6789872,Nov-2014,2,10,linear,0.05,0,L,2.5523,1,0.05,2,8,Male,Asian,Not Hispanic or Latino,English,Lab,PA,2-8-8-2,20.6789872,Nov-2014,2,10,linear,0.05,0,R,1.2067,0,0.05,3,8,Male,Asian,Not Hispanic or Latino,English,Lab,PA,2-8-8-2,20.6789872,Nov-2014,2,11,radial,0.05,0,L,2.453,1,0.05,1,2,Male,Asian,Not Hispanic or Latino,English,Lab,PA,2-8-8-2,20.6789872,Nov-2014,2,11,radial,0.05,0,L,3.3531,1,0.05,4,2,Male,Asian,Not Hispanic or Latino,English,Lab,PA,2-8-8-2,20.6789872,Nov-2014,2,11,radial,0,0.05,L,1.1342,0,0.05,2,8,Male,Asian,Not Hispanic or Latino,English,Lab,PA,2-8-8-2,20.6789872,Nov-2014,2,11,radial,0,0.05,L,0.53387,0,0.05,3,8,Male,Asian,Not Hispanic or Latino,English,Lab,PA,2-8-8-2,20.6789872,Nov-2014,2,12,radial,0.15,0,L,1.6347,1,0.15,1,2,Male,Asian,Not Hispanic or Latino,English,Lab,PA,2-8-8-2,20.6789872,Nov-2014,2,12,radial,0.15,0,L,0.71731,1,0.15,4,2,Male,Asian,Not Hispanic or Latino,English,Lab,PA,2-8-8-2,20.6789872,Nov-2014,2,12,linear,0,0.15,R,2.5524,1,0.15,2,8,Male,Asian,Not Hispanic or Latino,English,Lab,PA,2-8-8-2,20.6789872,Nov-2014,2,12,linear,0,0.15,R,2.2356,1,0.15,3,8,Male,Asian,Not Hispanic or Latino,English,Lab,PA,2-8-8-2,20.6789872,Nov-2014,2,13,linear,0,0.05,R,3.6034,1,0.05,1,2,Male,Asian,Not Hispanic or Latino,English,Lab,PA,2-8-8-2,20.6789872,Nov-2014,2,13,linear,0,0.05,R,1.0573,1,0.05,4,2,Male,Asian,Not Hispanic or Latino,English,Lab,PA,2-8-8-2,20.6789872,Nov-2014,2,13,linear,0,0.2,R,0.85675,1,0.2,2,8,Male,Asian,Not Hispanic or Latino,English,Lab,PA,2-8-8-2,20.6789872,Nov-2014,2,13,linear,0,0.2,R,0.91764,1,0.2,3,8,Male,Asian,Not Hispanic or Latino,English,Lab,PA,2-8-8-2,20.6789872,Nov-2014,2,14,radial,0,0.1,R,2.0425,1,0.1,1,2,Male,Asian,Not Hispanic or Latino,English,Lab,PA,2-8-8-2,20.6789872,Nov-2014,2,14,radial,0,0.1,R,1.2344,1,0.1,4,2,Male,Asian,Not Hispanic or Latino,English,Lab,PA,2-8-8-2,20.6789872,Nov-2014,2,14,linear,0.1,0,R,2.5519,0,0.1,2,8,Male,Asian,Not Hispanic or Latino,English,Lab,PA,2-8-8-2,20.6789872,Nov-2014,2,14,linear,0.1,0,L,0.7675,1,0.1,3,8,Male,Asian,Not Hispanic or Latino,English,Lab,PA,2-8-8-2,20.6789872,Nov-2014,2,15,radial,0.1,0,L,1.8513,1,0.1,1,2,Male,Asian,Not Hispanic or Latino,English,Lab,PA,2-8-8-2,20.6789872,Nov-2014,2,15,radial,0.1,0,L,2.4188,1,0.1,4,2,Male,Asian,Not Hispanic or Latino,English,Lab,PA,2-8-8-2,20.6789872,Nov-2014,2,15,radial,0.2,0,L,0.81756,1,0.2,2,8,Male,Asian,Not Hispanic or Latino,English,Lab,PA,2-8-8-2,20.6789872,Nov-2014,2,15,radial,0.2,0,L,0.73411,1,0.2,3,8,Male,Asian,Not Hispanic or Latino,English,Lab,PA,2-8-8-2,20.6789872,Nov-2014,2,16,linear,0.15,0,L,2.5737,1,0.15,1,2,Male,Asian,Not Hispanic or Latino,English,Lab,PA,2-8-8-2,20.6789872,Nov-2014,2,16,linear,0.15,0,L,0.7843,1,0.15,4,2,Male,Asian,Not Hispanic or Latino,English,Lab,PA,2-8-8-2,20.6789872,Nov-2014,2,16,linear,0,0.05,R,1.4846,1,0.05,2,8,Male,Asian,Not Hispanic or Latino,English,Lab,PA,2-8-8-2,20.6789872,Nov-2014,2,16,linear,0,0.05,R,2.6188,1,0.05,3,8,Male,Asian,Not Hispanic or Latino,English,Lab,PA,2-8-8-2,20.6789872,Nov-2014,3,1,radial,0.2,0,L,0.9842,1,0.2,1,2,Male,Asian,Not Hispanic or Latino,English,Lab,PA,2-8-8-2,20.6789872,Nov-2014,3,1,radial,0.2,0,L,0.56719,1,0.2,4,2,Male,Asian,Not Hispanic or Latino,English,Lab,PA,2-8-8-2,20.6789872,Nov-2014,3,1,radial,0.15,0,L,1.0252,1,0.15,2,8,Male,Asian,Not Hispanic or Latino,English,Lab,PA,2-8-8-2,20.6789872,Nov-2014,3,1,radial,0.15,0,L,1.0547,1,0.15,3,8,Male,Asian,Not Hispanic or Latino,English,Lab,PA,2-8-8-2,20.6789872,Nov-2014,3,2,radial,0,0.05,R,3.1694,1,0.05,1,2,Male,Asian,Not Hispanic or Latino,English,Lab,PA,2-8-8-2,20.6789872,Nov-2014,3,2,radial,0,0.05,L,1.7683,0,0.05,4,2,Male,Asian,Not Hispanic or Latino,English,Lab,PA,2-8-8-2,20.6789872,Nov-2014,3,2,radial,0.1,0,R,1.3848,0,0.1,2,8,Male,Asian,Not Hispanic or Latino,English,Lab,PA,2-8-8-2,20.6789872,Nov-2014,3,2,radial,0.1,0,L,1.0534,1,0.1,3,8,Male,Asian,Not Hispanic or Latino,English,Lab,PA,2-8-8-2,20.6789872,Nov-2014,3,3,radial,0,0.2,R,1.1342,1,0.2,1,2,Male,Asian,Not Hispanic or Latino,English,Lab,PA,2-8-8-2,20.6789872,Nov-2014,3,3,radial,0,0.2,R,0.6511,1,0.2,4,2,Male,Asian,Not Hispanic or Latino,English,Lab,PA,2-8-8-2,20.6789872,Nov-2014,3,3,radial,0,0.15,R,1.4848,1,0.15,2,8,Male,Asian,Not Hispanic or Latino,English,Lab,PA,2-8-8-2,20.6789872,Nov-2014,3,3,radial,0,0.15,R,2.4858,1,0.15,3,8,Male,Asian,Not Hispanic or Latino,English,Lab,PA,2-8-8-2,20.6789872,Nov-2014,3,4,radial,0,0.15,R,1.1344,1,0.15,1,2,Male,Asian,Not Hispanic or Latino,English,Lab,PA,2-8-8-2,20.6789872,Nov-2014,3,4,radial,0,0.15,R,0.95091,1,0.15,4,2,Male,Asian,Not Hispanic or Latino,English,Lab,PA,2-8-8-2,20.6789872,Nov-2014,3,4,radial,0,0.2,R,0.78409,1,0.2,2,8,Male,Asian,Not Hispanic or Latino,English,Lab,PA,2-8-8-2,20.6789872,Nov-2014,3,4,radial,0,0.2,R,1.0677,1,0.2,3,8,Male,Asian,Not Hispanic or Latino,English,Lab,PA,2-8-8-2,20.6789872,Nov-2014,3,5,linear,0.1,0,L,1.0177,1,0.1,1,2,Male,Asian,Not Hispanic or Latino,English,Lab,PA,2-8-8-2,20.6789872,Nov-2014,3,5,linear,0.1,0,L,1.2559,1,0.1,4,2,Male,Asian,Not Hispanic or Latino,English,Lab,PA,2-8-8-2,20.6789872,Nov-2014,3,5,radial,0.05,0,R,2.7025,0,0.05,2,8,Male,Asian,Not Hispanic or Latino,English,Lab,PA,2-8-8-2,20.6789872,Nov-2014,3,5,radial,0.05,0,L,1.7018,1,0.05,3,8,Male,Asian,Not Hispanic or Latino,English,Lab,PA,2-8-8-2,20.6789872,Nov-2014,3,6,linear,0.2,0,L,1.0013,1,0.2,1,2,Male,Asian,Not Hispanic or Latino,English,Lab,PA,2-8-8-2,20.6789872,Nov-2014,3,6,linear,0.2,0,L,0.99114,1,0.2,4,2,Male,Asian,Not Hispanic or Latino,English,Lab,PA,2-8-8-2,20.6789872,Nov-2014,3,6,radial,0,0.1,R,2.3688,1,0.1,2,8,Male,Asian,Not Hispanic or Latino,English,Lab,PA,2-8-8-2,20.6789872,Nov-2014,3,6,radial,0,0.1,L,1.6017,0,0.1,3,8,Male,Asian,Not Hispanic or Latino,English,Lab,PA,2-8-8-2,20.6789872,Nov-2014,3,7,linear,0.05,0,L,3.1529,1,0.05,1,2,Male,Asian,Not Hispanic or Latino,English,Lab,PA,2-8-8-2,20.6789872,Nov-2014,3,7,linear,0.05,0,L,2.6592,1,0.05,4,2,Male,Asian,Not Hispanic or Latino,English,Lab,PA,2-8-8-2,20.6789872,Nov-2014,3,7,radial,0,0.05,R,1.1176,1,0.05,2,8,Male,Asian,Not Hispanic or Latino,English,Lab,PA,2-8-8-2,20.6789872,Nov-2014,3,7,radial,0,0.05,R,2.102,1,0.05,3,8,Male,Asian,Not Hispanic or Latino,English,Lab,PA,2-8-8-2,20.6789872,Nov-2014,3,8,linear,0,0.2,R,0.96811,1,0.2,1,2,Male,Asian,Not Hispanic or Latino,English,Lab,PA,2-8-8-2,20.6789872,Nov-2014,3,8,linear,0,0.2,R,0.70507,1,0.2,4,2,Male,Asian,Not Hispanic or Latino,English,Lab,PA,2-8-8-2,20.6789872,Nov-2014,3,8,linear,0.2,0,L,0.51737,1,0.2,2,8,Male,Asian,Not Hispanic or Latino,English,Lab,PA,2-8-8-2,20.6789872,Nov-2014,3,8,linear,0.2,0,L,0.75085,1,0.2,3,8,Male,Asian,Not Hispanic or Latino,English,Lab,PA,2-8-8-2,20.6789872,Nov-2014,3,9,linear,0,0.15,R,1.9185,1,0.15,1,2,Male,Asian,Not Hispanic or Latino,English,Lab,PA,2-8-8-2,20.6789872,Nov-2014,3,9,linear,0,0.15,R,0.91786,1,0.15,4,2,Male,Asian,Not Hispanic or Latino,English,Lab,PA,2-8-8-2,20.6789872,Nov-2014,3,9,linear,0,0.1,R,1.0512,1,0.1,2,8,Male,Asian,Not Hispanic or Latino,English,Lab,PA,2-8-8-2,20.6789872,Nov-2014,3,9,linear,0,0.1,L,2.4686,0,0.1,3,8,Male,Asian,Not Hispanic or Latino,English,Lab,PA,2-8-8-2,20.6789872,Nov-2014,3,10,radial,0.05,0,L,2.8354,1,0.05,1,2,Male,Asian,Not Hispanic or Latino,English,Lab,PA,2-8-8-2,20.6789872,Nov-2014,3,10,radial,0.05,0,L,2.4854,1,0.05,4,2,Male,Asian,Not Hispanic or Latino,English,Lab,PA,2-8-8-2,20.6789872,Nov-2014,3,10,radial,0.2,0,L,0.58384,1,0.2,2,8,Male,Asian,Not Hispanic or Latino,English,Lab,PA,2-8-8-2,20.6789872,Nov-2014,3,10,radial,0.2,0,L,1.1394,1,0.2,3,8,Male,Asian,Not Hispanic or Latino,English,Lab,PA,2-8-8-2,20.6789872,Nov-2014,3,11,radial,0.15,0,L,1.8575,1,0.15,1,2,Male,Asian,Not Hispanic or Latino,English,Lab,PA,2-8-8-2,20.6789872,Nov-2014,3,11,radial,0.15,0,L,0.75076,1,0.15,4,2,Male,Asian,Not Hispanic or Latino,English,Lab,PA,2-8-8-2,20.6789872,Nov-2014,3,11,linear,0.15,0,L,1.0891,1,0.15,2,8,Male,Asian,Not Hispanic or Latino,English,Lab,PA,2-8-8-2,20.6789872,Nov-2014,3,11,linear,0.15,0,L,0.85561,1,0.15,3,8,Male,Asian,Not Hispanic or Latino,English,Lab,PA,2-8-8-2,20.6789872,Nov-2014,3,12,radial,0,0.1,R,2.5736,1,0.1,1,2,Male,Asian,Not Hispanic or Latino,English,Lab,PA,2-8-8-2,20.6789872,Nov-2014,3,12,radial,0,0.1,R,2.5188,1,0.1,4,2,Male,Asian,Not Hispanic or Latino,English,Lab,PA,2-8-8-2,20.6789872,Nov-2014,3,12,linear,0.05,0,R,0.95072,0,0.05,2,8,Male,Asian,Not Hispanic or Latino,English,Lab,PA,2-8-8-2,20.6789872,Nov-2014,3,12,linear,0.05,0,R,2.3856,0,0.05,3,8,Male,Asian,Not Hispanic or Latino,English,Lab,PA,2-8-8-2,20.6789872,Nov-2014,3,13,radial,0.1,0,L,1.3513,1,0.1,1,2,Male,Asian,Not Hispanic or Latino,English,Lab,PA,2-8-8-2,20.6789872,Nov-2014,3,13,radial,0.1,0,L,3.5699,1,0.1,4,2,Male,Asian,Not Hispanic or Latino,English,Lab,PA,2-8-8-2,20.6789872,Nov-2014,3,13,linear,0,0.15,R,1.0562,1,0.15,2,8,Male,Asian,Not Hispanic or Latino,English,Lab,PA,2-8-8-2,20.6789872,Nov-2014,3,13,linear,0,0.15,R,1.1515,1,0.15,3,8,Male,Asian,Not Hispanic or Latino,English,Lab,PA,2-8-8-2,20.6789872,Nov-2014,3,14,linear,0,0.1,R,2.5188,1,0.1,1,2,Male,Asian,Not Hispanic or Latino,English,Lab,PA,2-8-8-2,20.6789872,Nov-2014,3,14,linear,0,0.1,L,2.5522,0,0.1,4,2,Male,Asian,Not Hispanic or Latino,English,Lab,PA,2-8-8-2,20.6789872,Nov-2014,3,14,linear,0,0.2,R,0.95092,1,0.2,2,8,Male,Asian,Not Hispanic or Latino,English,Lab,PA,2-8-8-2,20.6789872,Nov-2014,3,14,linear,0,0.2,R,0.81732,1,0.2,3,8,Male,Asian,Not Hispanic or Latino,English,Lab,PA,2-8-8-2,20.6789872,Nov-2014,3,15,linear,0,0.05,R,2.8372,1,0.05,1,2,Male,Asian,Not Hispanic or Latino,English,Lab,PA,2-8-8-2,20.6789872,Nov-2014,3,15,linear,0,0.05,R,1.5348,1,0.05,4,2,Male,Asian,Not Hispanic or Latino,English,Lab,PA,2-8-8-2,20.6789872,Nov-2014,3,15,linear,0.1,0,L,1.2347,1,0.1,2,8,Male,Asian,Not Hispanic or Latino,English,Lab,PA,2-8-8-2,20.6789872,Nov-2014,3,15,linear,0.1,0,L,1.3122,1,0.1,3,8,Male,Asian,Not Hispanic or Latino,English,Lab,PA,2-8-8-2,20.6789872,Nov-2014,3,16,linear,0.15,0,L,0.97216,1,0.15,1,2,Male,Asian,Not Hispanic or Latino,English,Lab,PA,2-8-8-2,20.6789872,Nov-2014,3,16,linear,0.15,0,L,1.0841,1,0.15,4,2,Male,Asian,Not Hispanic or Latino,English,Lab,PA,2-8-8-2,20.6789872,Nov-2014,3,16,linear,0,0.05,L,1.1954,0,0.05,2,8,Male,Asian,Not Hispanic or Latino,English,Lab,PA,2-8-8-2,20.6789872,Nov-2014,3,16,linear,0,0.05,R,2.719,1,0.05,3,8,Male,Asian,Not Hispanic or Latino,English,Lab,PA,2-8-8-2,20.6789872,Nov-2014,4,1,linear,0.1,0,L,1.7011,1,0.1,1,2,Male,Asian,Not Hispanic or Latino,English,Lab,PA,2-8-8-2,20.6789872,Nov-2014,4,1,linear,0.1,0,L,0.90093,1,0.1,4,2,Male,Asian,Not Hispanic or Latino,English,Lab,PA,2-8-8-2,20.6789872,Nov-2014,4,1,radial,0.15,0,L,0.88834,1,0.15,2,8,Male,Asian,Not Hispanic or Latino,English,Lab,PA,2-8-8-2,20.6789872,Nov-2014,4,1,radial,0.15,0,L,1.001,1,0.15,3,8,Male,Asian,Not Hispanic or Latino,English,Lab,PA,2-8-8-2,20.6789872,Nov-2014,4,2,radial,0.2,0,L,0.85562,1,0.2,1,2,Male,Asian,Not Hispanic or Latino,English,Lab,PA,2-8-8-2,20.6789872,Nov-2014,4,2,radial,0.2,0,L,0.65068,1,0.2,4,2,Male,Asian,Not Hispanic or Latino,English,Lab,PA,2-8-8-2,20.6789872,Nov-2014,4,2,linear,0.2,0,L,0.71732,1,0.2,2,8,Male,Asian,Not Hispanic or Latino,English,Lab,PA,2-8-8-2,20.6789872,Nov-2014,4,2,linear,0.2,0,L,0.66761,1,0.2,3,8,Male,Asian,Not Hispanic or Latino,English,Lab,PA,2-8-8-2,20.6789872,Nov-2014,4,3,radial,0,0.05,R,1.7922,1,0.05,1,2,Male,Asian,Not Hispanic or Latino,English,Lab,PA,2-8-8-2,20.6789872,Nov-2014,4,3,radial,0,0.05,R,1.5183,1,0.05,4,2,Male,Asian,Not Hispanic or Latino,English,Lab,PA,2-8-8-2,20.6789872,Nov-2014,4,3,radial,0.1,0,R,1.4679,0,0.1,2,8,Male,Asian,Not Hispanic or Latino,English,Lab,PA,2-8-8-2,20.6789872,Nov-2014,4,3,radial,0.1,0,R,1.1064,0,0.1,3,8,Male,Asian,Not Hispanic or Latino,English,Lab,PA,2-8-8-2,20.6789872,Nov-2014,4,4,linear,0.2,0,L,0.91762,1,0.2,1,2,Male,Asian,Not Hispanic or Latino,English,Lab,PA,2-8-8-2,20.6789872,Nov-2014,4,4,linear,0.2,0,L,0.73398,1,0.2,4,2,Male,Asian,Not Hispanic or Latino,English,Lab,PA,2-8-8-2,20.6789872,Nov-2014,4,4,radial,0,0.15,L,0.68425,0,0.15,2,8,Male,Asian,Not Hispanic or Latino,English,Lab,PA,2-8-8-2,20.6789872,Nov-2014,4,4,radial,0,0.15,R,2.1685,1,0.15,3,8,Male,Asian,Not Hispanic or Latino,English,Lab,PA,2-8-8-2,20.6789872,Nov-2014,4,5,linear,0.05,0,L,2.6524,1,0.05,1,2,Male,Asian,Not Hispanic or Latino,English,Lab,PA,2-8-8-2,20.6789872,Nov-2014,4,5,linear,0.05,0,L,1.2205,1,0.05,4,2,Male,Asian,Not Hispanic or Latino,English,Lab,PA,2-8-8-2,20.6789872,Nov-2014,4,5,linear,0,0.1,L,2.7951,0,0.1,2,8,Male,Asian,Not Hispanic or Latino,English,Lab,PA,2-8-8-2,20.6789872,Nov-2014,4,5,linear,0,0.1,R,4.5727,1,0.1,3,8,Male,Asian,Not Hispanic or Latino,English,Lab,PA,2-8-8-2,20.6789872,Nov-2014,4,6,radial,0,0.2,R,1.8184,1,0.2,1,2,Male,Asian,Not Hispanic or Latino,English,Lab,PA,2-8-8-2,20.6789872,Nov-2014,4,6,radial,0,0.2,R,2.3354,1,0.2,4,2,Male,Asian,Not Hispanic or Latino,English,Lab,PA,2-8-8-2,20.6789872,Nov-2014,4,6,radial,0,0.2,R,1.2011,1,0.2,2,8,Male,Asian,Not Hispanic or Latino,English,Lab,PA,2-8-8-2,20.6789872,Nov-2014,4,6,radial,0,0.2,R,0.8174,1,0.2,3,8,Male,Asian,Not Hispanic or Latino,English,Lab,PA,2-8-8-2,20.6789872,Nov-2014,4,7,radial,0,0.15,R,0.81738,1,0.15,1,2,Male,Asian,Not Hispanic or Latino,English,Lab,PA,2-8-8-2,20.6789872,Nov-2014,4,7,radial,0,0.15,R,2.386,1,0.15,4,2,Male,Asian,Not Hispanic or Latino,English,Lab,PA,2-8-8-2,20.6789872,Nov-2014,4,7,radial,0.05,0,L,2.7036,1,0.05,2,8,Male,Asian,Not Hispanic or Latino,English,Lab,PA,2-8-8-2,20.6789872,Nov-2014,4,7,radial,0.05,0,R,1.2927,0,0.05,3,8,Male,Asian,Not Hispanic or Latino,English,Lab,PA,2-8-8-2,20.6789872,Nov-2014,4,8,linear,0,0.2,R,3.1361,1,0.2,1,2,Male,Asian,Not Hispanic or Latino,English,Lab,PA,2-8-8-2,20.6789872,Nov-2014,4,8,linear,0,0.2,R,1.418,1,0.2,4,2,Male,Asian,Not Hispanic or Latino,English,Lab,PA,2-8-8-2,20.6789872,Nov-2014,4,8,linear,0.15,0,L,0.90125,1,0.15,2,8,Male,Asian,Not Hispanic or Latino,English,Lab,PA,2-8-8-2,20.6789872,Nov-2014,4,8,linear,0.15,0,L,1.0345,1,0.15,3,8,Male,Asian,Not Hispanic or Latino,English,Lab,PA,2-8-8-2,20.6789872,Nov-2014,4,9,linear,0,0.15,L,3.6028,0,0.15,1,2,Male,Asian,Not Hispanic or Latino,English,Lab,PA,2-8-8-2,20.6789872,Nov-2014,4,9,linear,0,0.15,R,0.91773,1,0.15,4,2,Male,Asian,Not Hispanic or Latino,English,Lab,PA,2-8-8-2,20.6789872,Nov-2014,4,9,radial,0,0.1,R,2.0515,1,0.1,2,8,Male,Asian,Not Hispanic or Latino,English,Lab,PA,2-8-8-2,20.6789872,Nov-2014,4,9,radial,0,0.1,R,2.8526,1,0.1,3,8,Male,Asian,Not Hispanic or Latino,English,Lab,PA,2-8-8-2,20.6789872,Nov-2014,4,10,linear,0,0.1,R,2.5687,1,0.1,1,2,Male,Asian,Not Hispanic or Latino,English,Lab,PA,2-8-8-2,20.6789872,Nov-2014,4,10,linear,0,0.1,R,1.0185,1,0.1,4,2,Male,Asian,Not Hispanic or Latino,English,Lab,PA,2-8-8-2,20.6789872,Nov-2014,4,10,radial,0,0.05,R,2.5689,1,0.05,2,8,Male,Asian,Not Hispanic or Latino,English,Lab,PA,2-8-8-2,20.6789872,Nov-2014,4,10,radial,0,0.05,L,1.5181,0,0.05,3,8,Male,Asian,Not Hispanic or Latino,English,Lab,PA,2-8-8-2,20.6789872,Nov-2014,4,11,radial,0.05,0,R,2.59,0,0.05,1,2,Male,Asian,Not Hispanic or Latino,English,Lab,PA,2-8-8-2,20.6789872,Nov-2014,4,11,radial,0.05,0,R,2.5689,0,0.05,4,2,Male,Asian,Not Hispanic or Latino,English,Lab,PA,2-8-8-2,20.6789872,Nov-2014,4,11,radial,0.2,0,L,0.68397,1,0.2,2,8,Male,Asian,Not Hispanic or Latino,English,Lab,PA,2-8-8-2,20.6789872,Nov-2014,4,11,radial,0.2,0,L,0.90156,1,0.2,3,8,Male,Asian,Not Hispanic or Latino,English,Lab,PA,2-8-8-2,20.6789872,Nov-2014,4,12,linear,0,0.05,L,3.3361,0,0.05,1,2,Male,Asian,Not Hispanic or Latino,English,Lab,PA,2-8-8-2,20.6789872,Nov-2014,4,12,linear,0,0.05,R,2.5525,1,0.05,4,2,Male,Asian,Not Hispanic or Latino,English,Lab,PA,2-8-8-2,20.6789872,Nov-2014,4,12,linear,0.05,0,R,1.3676,0,0.05,2,8,Male,Asian,Not Hispanic or Latino,English,Lab,PA,2-8-8-2,20.6789872,Nov-2014,4,12,linear,0.05,0,R,1.1345,0,0.05,3,8,Male,Asian,Not Hispanic or Latino,English,Lab,PA,2-8-8-2,20.6789872,Nov-2014,4,13,radial,0.15,0,R,3.4362,0,0.15,1,2,Male,Asian,Not Hispanic or Latino,English,Lab,PA,2-8-8-2,20.6789872,Nov-2014,4,13,radial,0.15,0,L,1.1752,1,0.15,4,2,Male,Asian,Not Hispanic or Latino,English,Lab,PA,2-8-8-2,20.6789872,Nov-2014,4,13,linear,0,0.15,L,3.9369,0,0.15,2,8,Male,Asian,Not Hispanic or Latino,English,Lab,PA,2-8-8-2,20.6789872,Nov-2014,4,13,linear,0,0.15,R,0.76754,1,0.15,3,8,Male,Asian,Not Hispanic or Latino,English,Lab,PA,2-8-8-2,20.6789872,Nov-2014,4,14,linear,0.15,0,L,2.4209,1,0.15,1,2,Male,Asian,Not Hispanic or Latino,English,Lab,PA,2-8-8-2,20.6789872,Nov-2014,4,14,linear,0.15,0,L,1.435,1,0.15,4,2,Male,Asian,Not Hispanic or Latino,English,Lab,PA,2-8-8-2,20.6789872,Nov-2014,4,14,linear,0,0.2,R,0.78437,1,0.2,2,8,Male,Asian,Not Hispanic or Latino,English,Lab,PA,2-8-8-2,20.6789872,Nov-2014,4,14,linear,0,0.2,R,0.76752,1,0.2,3,8,Male,Asian,Not Hispanic or Latino,English,Lab,PA,2-8-8-2,20.6789872,Nov-2014,4,15,radial,0,0.1,L,4.1703,0,0.1,1,2,Male,Asian,Not Hispanic or Latino,English,Lab,PA,2-8-8-2,20.6789872,Nov-2014,4,15,radial,0,0.1,R,1.3847,1,0.1,4,2,Male,Asian,Not Hispanic or Latino,English,Lab,PA,2-8-8-2,20.6789872,Nov-2014,4,15,linear,0.1,0,L,1.3354,1,0.1,2,8,Male,Asian,Not Hispanic or Latino,English,Lab,PA,2-8-8-2,20.6789872,Nov-2014,4,15,linear,0.1,0,L,0.70076,1,0.1,3,8,Male,Asian,Not Hispanic or Latino,English,Lab,PA,2-8-8-2,20.6789872,Nov-2014,4,16,radial,0.1,0,R,9.5083,0,0.1,1,2,Male,Asian,Not Hispanic or Latino,English,Lab,PA,2-8-8-2,20.6789872,Nov-2014,4,16,radial,0.1,0,L,1.001,1,0.1,4,2,Male,Asian,Not Hispanic or Latino,English,Lab,PA,2-8-8-2,20.6789872,Nov-2014,4,16,linear,0,0.05,R,2.7753,1,0.05,2,8,Male,Asian,Not Hispanic or Latino,English,Lab,PA,2-8-8-2,20.6789872,Nov-2014,4,16,linear,0,0.05,R,1.9729,1,0.05,3,8,Male,Asian,Not Hispanic or Latino,English,Lab,PA,2-8-8-2,20.6789872,Nov-2014,5,1,radial,0.2,0,L,1.0344,1,0.2,1,2,Male,Asian,Not Hispanic or Latino,English,Lab,PA,2-8-8-2,20.6789872,Nov-2014,5,1,radial,0.2,0,L,0.7341,1,0.2,4,2,Male,Asian,Not Hispanic or Latino,English,Lab,PA,2-8-8-2,20.6789872,Nov-2014,5,1,linear,0.2,0,L,0.77748,1,0.2,2,8,Male,Asian,Not Hispanic or Latino,English,Lab,PA,2-8-8-2,20.6789872,Nov-2014,5,1,linear,0.2,0,L,0.73993,1,0.2,3,8,Male,Asian,Not Hispanic or Latino,English,Lab,PA,2-8-8-2,20.6789872,Nov-2014,5,2,linear,0.1,0,L,3.7033,1,0.1,1,2,Male,Asian,Not Hispanic or Latino,English,Lab,PA,2-8-8-2,20.6789872,Nov-2014,5,2,linear,0.1,0,L,0.9869,1,0.1,4,2,Male,Asian,Not Hispanic or Latino,English,Lab,PA,2-8-8-2,20.6789872,Nov-2014,5,2,radial,0.15,0,L,1.0511,1,0.15,2,8,Male,Asian,Not Hispanic or Latino,English,Lab,PA,2-8-8-2,20.6789872,Nov-2014,5,2,radial,0.15,0,L,2.2524,1,0.15,3,8,Male,Asian,Not Hispanic or Latino,English,Lab,PA,2-8-8-2,20.6789872,Nov-2014,5,3,linear,0.2,0,L,2.7396,1,0.2,1,2,Male,Asian,Not Hispanic or Latino,English,Lab,PA,2-8-8-2,20.6789872,Nov-2014,5,3,linear,0.2,0,L,0.70113,1,0.2,4,2,Male,Asian,Not Hispanic or Latino,English,Lab,PA,2-8-8-2,20.6789872,Nov-2014,5,3,linear,0,0.1,L,4.0034,0,0.1,2,8,Male,Asian,Not Hispanic or Latino,English,Lab,PA,2-8-8-2,20.6789872,Nov-2014,5,3,linear,0,0.1,R,2.2854,1,0.1,3,8,Male,Asian,Not Hispanic or Latino,English,Lab,PA,2-8-8-2,20.6789872,Nov-2014,5,4,radial,0,0.05,R,5.8551,1,0.05,1,2,Male,Asian,Not Hispanic or Latino,English,Lab,PA,2-8-8-2,20.6789872,Nov-2014,5,4,radial,0,0.05,L,0.7508,0,0.05,4,2,Male,Asian,Not Hispanic or Latino,English,Lab,PA,2-8-8-2,20.6789872,Nov-2014,5,4,radial,0.1,0,R,3.7701,0,0.1,2,8,Male,Asian,Not Hispanic or Latino,English,Lab,PA,2-8-8-2,20.6789872,Nov-2014,5,4,radial,0.1,0,L,0.95081,1,0.1,3,8,Male,Asian,Not Hispanic or Latino,English,Lab,PA,2-8-8-2,20.6789872,Nov-2014,5,5,radial,0,0.2,R,1.1786,1,0.2,1,2,Male,Asian,Not Hispanic or Latino,English,Lab,PA,2-8-8-2,20.6789872,Nov-2014,5,5,radial,0,0.2,R,0.75099,1,0.2,4,2,Male,Asian,Not Hispanic or Latino,English,Lab,PA,2-8-8-2,20.6789872,Nov-2014,5,5,linear,0.15,0,L,1.2344,1,0.15,2,8,Male,Asian,Not Hispanic or Latino,English,Lab,PA,2-8-8-2,20.6789872,Nov-2014,5,5,linear,0.15,0,L,0.75065,1,0.15,3,8,Male,Asian,Not Hispanic or Latino,English,Lab,PA,2-8-8-2,20.6789872,Nov-2014,5,6,linear,0.05,0,L,2.2103,1,0.05,1,2,Male,Asian,Not Hispanic or Latino,English,Lab,PA,2-8-8-2,20.6789872,Nov-2014,5,6,linear,0.05,0,L,2.0848,1,0.05,4,2,Male,Asian,Not Hispanic or Latino,English,Lab,PA,2-8-8-2,20.6789872,Nov-2014,5,6,radial,0,0.15,R,1.1191,1,0.15,2,8,Male,Asian,Not Hispanic or Latino,English,Lab,PA,2-8-8-2,20.6789872,Nov-2014,5,6,radial,0,0.15,R,2.4856,1,0.15,3,8,Male,Asian,Not Hispanic or Latino,English,Lab,PA,2-8-8-2,20.6789872,Nov-2014,5,7,linear,0,0.2,R,2.2354,1,0.2,1,2,Male,Asian,Not Hispanic or Latino,English,Lab,PA,2-8-8-2,20.6789872,Nov-2014,5,7,linear,0,0.2,R,0.95123,1,0.2,4,2,Male,Asian,Not Hispanic or Latino,English,Lab,PA,2-8-8-2,20.6789872,Nov-2014,5,7,radial,0,0.2,R,0.95226,1,0.2,2,8,Male,Asian,Not Hispanic or Latino,English,Lab,PA,2-8-8-2,20.6789872,Nov-2014,5,7,radial,0,0.2,R,1.051,1,0.2,3,8,Male,Asian,Not Hispanic or Latino,English,Lab,PA,2-8-8-2,20.6789872,Nov-2014,5,8,radial,0,0.15,R,1.2845,1,0.15,1,2,Male,Asian,Not Hispanic or Latino,English,Lab,PA,2-8-8-2,20.6789872,Nov-2014,5,8,radial,0,0.15,R,0.85089,1,0.15,4,2,Male,Asian,Not Hispanic or Latino,English,Lab,PA,2-8-8-2,20.6789872,Nov-2014,5,8,radial,0.05,0,R,1.1226,0,0.05,2,8,Male,Asian,Not Hispanic or Latino,English,Lab,PA,2-8-8-2,20.6789872,Nov-2014,5,8,radial,0.05,0,L,1.4347,1,0.05,3,8,Male,Asian,Not Hispanic or Latino,English,Lab,PA,2-8-8-2,20.6789872,Nov-2014,5,9,radial,0.05,0,R,5.4051,0,0.05,1,2,Male,Asian,Not Hispanic or Latino,English,Lab,PA,2-8-8-2,20.6789872,Nov-2014,5,9,radial,0.05,0,L,2.3025,1,0.05,4,2,Male,Asian,Not Hispanic or Latino,English,Lab,PA,2-8-8-2,20.6789872,Nov-2014,5,9,linear,0.05,0,L,1.5351,1,0.05,2,8,Male,Asian,Not Hispanic or Latino,English,Lab,PA,2-8-8-2,20.6789872,Nov-2014,5,9,linear,0.05,0,R,3.3195,0,0.05,3,8,Male,Asian,Not Hispanic or Latino,English,Lab,PA,2-8-8-2,20.6789872,Nov-2014,5,10,radial,0.15,0,R,4.2264,0,0.15,1,2,Male,Asian,Not Hispanic or Latino,English,Lab,PA,2-8-8-2,20.6789872,Nov-2014,5,10,radial,0.15,0,L,0.78423,1,0.15,4,2,Male,Asian,Not Hispanic or Latino,English,Lab,PA,2-8-8-2,20.6789872,Nov-2014,5,10,linear,0,0.15,R,2.4024,1,0.15,2,8,Male,Asian,Not Hispanic or Latino,English,Lab,PA,2-8-8-2,20.6789872,Nov-2014,5,10,linear,0,0.15,R,1.1511,1,0.15,3,8,Male,Asian,Not Hispanic or Latino,English,Lab,PA,2-8-8-2,20.6789872,Nov-2014,5,11,radial,0,0.1,L,2.2083,0,0.1,1,2,Male,Asian,Not Hispanic or Latino,English,Lab,PA,2-8-8-2,20.6789872,Nov-2014,5,11,radial,0,0.1,R,2.5189,1,0.1,4,2,Male,Asian,Not Hispanic or Latino,English,Lab,PA,2-8-8-2,20.6789872,Nov-2014,5,11,linear,0,0.2,R,1.2008,1,0.2,2,8,Male,Asian,Not Hispanic or Latino,English,Lab,PA,2-8-8-2,20.6789872,Nov-2014,5,11,linear,0,0.2,R,0.80444,1,0.2,3,8,Male,Asian,Not Hispanic or Latino,English,Lab,PA,2-8-8-2,20.6789872,Nov-2014,5,12,radial,0.1,0,R,1.351,0,0.1,1,2,Male,Asian,Not Hispanic or Latino,English,Lab,PA,2-8-8-2,20.6789872,Nov-2014,5,12,radial,0.1,0,L,4.4203,1,0.1,4,2,Male,Asian,Not Hispanic or Latino,English,Lab,PA,2-8-8-2,20.6789872,Nov-2014,5,12,radial,0,0.1,L,1.5017,0,0.1,2,8,Male,Asian,Not Hispanic or Latino,English,Lab,PA,2-8-8-2,20.6789872,Nov-2014,5,12,radial,0,0.1,R,1.2846,1,0.1,3,8,Male,Asian,Not Hispanic or Latino,English,Lab,PA,2-8-8-2,20.6789872,Nov-2014,5,13,linear,0,0.15,R,2.1191,1,0.15,1,2,Male,Asian,Not Hispanic or Latino,English,Lab,PA,2-8-8-2,20.6789872,Nov-2014,5,13,linear,0,0.15,R,2.202,1,0.15,4,2,Male,Asian,Not Hispanic or Latino,English,Lab,PA,2-8-8-2,20.6789872,Nov-2014,5,13,radial,0,0.05,R,2.6525,1,0.05,2,8,Male,Asian,Not Hispanic or Latino,English,Lab,PA,2-8-8-2,20.6789872,Nov-2014,5,13,radial,0,0.05,R,2.4372,1,0.05,3,8,Male,Asian,Not Hispanic or Latino,English,Lab,PA,2-8-8-2,20.6789872,Nov-2014,5,14,linear,0,0.1,R,2.7023,1,0.1,1,2,Male,Asian,Not Hispanic or Latino,English,Lab,PA,2-8-8-2,20.6789872,Nov-2014,5,14,linear,0,0.1,R,2.9692,1,0.1,4,2,Male,Asian,Not Hispanic or Latino,English,Lab,PA,2-8-8-2,20.6789872,Nov-2014,5,14,linear,0.1,0,L,1.4513,1,0.1,2,8,Male,Asian,Not Hispanic or Latino,English,Lab,PA,2-8-8-2,20.6789872,Nov-2014,5,14,linear,0.1,0,L,1.3178,1,0.1,3,8,Male,Asian,Not Hispanic or Latino,English,Lab,PA,2-8-8-2,20.6789872,Nov-2014,5,15,linear,0,0.05,R,5.9553,1,0.05,1,2,Male,Asian,Not Hispanic or Latino,English,Lab,PA,2-8-8-2,20.6789872,Nov-2014,5,15,linear,0,0.05,L,2.3189,0,0.05,4,2,Male,Asian,Not Hispanic or Latino,English,Lab,PA,2-8-8-2,20.6789872,Nov-2014,5,15,radial,0.2,0,L,0.70097,1,0.2,2,8,Male,Asian,Not Hispanic or Latino,English,Lab,PA,2-8-8-2,20.6789872,Nov-2014,5,15,radial,0.2,0,L,0.65273,1,0.2,3,8,Male,Asian,Not Hispanic or Latino,English,Lab,PA,2-8-8-2,20.6789872,Nov-2014,5,16,linear,0.15,0,L,1.3348,1,0.15,1,2,Male,Asian,Not Hispanic or Latino,English,Lab,PA,2-8-8-2,20.6789872,Nov-2014,5,16,linear,0.15,0,L,0.86747,1,0.15,4,2,Male,Asian,Not Hispanic or Latino,English,Lab,PA,2-8-8-2,20.6789872,Nov-2014,5,16,linear,0,0.05,R,1.3012,1,0.05,2,8,Male,Asian,Not Hispanic or Latino,English,Lab,PA,2-8-8-2,20.6789872,Nov-2014,5,16,linear,0,0.05,R,2.7951,1,0.05,3,8,Male,Asian,Not Hispanic or Latino,English,Lab,PA,2-8-8-2,20.6789873,Nov-2014,1,1,linear,0.1,0,L,6.8559,1,0.1,1,2,Female,White,Not Hispanic or Latino,English,Lab,PA,8-2-8-2,21.522245043,Nov-2014,1,1,linear,0.1,0,R,2.7189,0,0.1,4,2,Female,White,Not Hispanic or Latino,English,Lab,PA,8-2-8-2,21.522245043,Nov-2014,1,1,radial,0.15,0,R,4.231,0,0.15,2,8,Female,White,Not Hispanic or Latino,English,Lab,PA,8-2-8-2,21.522245043,Nov-2014,1,1,radial,0.15,0,R,2.4521,0,0.15,3,8,Female,White,Not Hispanic or Latino,English,Lab,PA,8-2-8-2,21.522245043,Nov-2014,1,2,linear,0.2,0,R,2.1852,0,0.2,1,2,Female,White,Not Hispanic or Latino,English,Lab,PA,8-2-8-2,21.522245043,Nov-2014,1,2,linear,0.2,0,L,2.2189,1,0.2,4,2,Female,White,Not Hispanic or Latino,English,Lab,PA,8-2-8-2,21.522245043,Nov-2014,1,2,radial,0.1,0,R,7.5729,0,0.1,2,8,Female,White,Not Hispanic or Latino,English,Lab,PA,8-2-8-2,21.522245043,Nov-2014,1,2,radial,0.1,0,L,2.0351,1,0.1,3,8,Female,White,Not Hispanic or Latino,English,Lab,PA,8-2-8-2,21.522245043,Nov-2014,1,3,radial,0.2,0,L,2.3256,1,0.2,1,2,Female,White,Not Hispanic or Latino,English,Lab,PA,8-2-8-2,21.522245043,Nov-2014,1,3,radial,0.2,0,L,1.218,1,0.2,4,2,Female,White,Not Hispanic or Latino,English,Lab,PA,8-2-8-2,21.522245043,Nov-2014,1,3,radial,0,0.15,R,5.2379,1,0.15,2,8,Female,White,Not Hispanic or Latino,English,Lab,PA,8-2-8-2,21.522245043,Nov-2014,1,3,radial,0,0.15,R,0.9009,1,0.15,3,8,Female,White,Not Hispanic or Latino,English,Lab,PA,8-2-8-2,21.522245043,Nov-2014,1,4,linear,0.05,0,L,2.8189,1,0.05,1,2,Female,White,Not Hispanic or Latino,English,Lab,PA,8-2-8-2,21.522245043,Nov-2014,1,4,linear,0.05,0,R,3.6534,0,0.05,4,2,Female,White,Not Hispanic or Latino,English,Lab,PA,8-2-8-2,21.522245043,Nov-2014,1,4,radial,0,0.2,R,2.1353,1,0.2,2,8,Female,White,Not Hispanic or Latino,English,Lab,PA,8-2-8-2,21.522245043,Nov-2014,1,4,radial,0,0.2,R,0.98441,1,0.2,3,8,Female,White,Not Hispanic or Latino,English,Lab,PA,8-2-8-2,21.522245043,Nov-2014,1,5,linear,0,0.2,L,4.4208,0,0.2,1,2,Female,White,Not Hispanic or Latino,English,Lab,PA,8-2-8-2,21.522245043,Nov-2014,1,5,linear,0,0.2,R,2.4689,1,0.2,4,2,Female,White,Not Hispanic or Latino,English,Lab,PA,8-2-8-2,21.522245043,Nov-2014,1,5,radial,0.05,0,R,9.1411,0,0.05,2,8,Female,White,Not Hispanic or Latino,English,Lab,PA,8-2-8-2,21.522245043,Nov-2014,1,5,radial,0.05,0,R,2.3583,0,0.05,3,8,Female,White,Not Hispanic or Latino,English,Lab,PA,8-2-8-2,21.522245043,Nov-2014,1,6,radial,0,0.05,R,6.1888,1,0.05,1,2,Female,White,Not Hispanic or Latino,English,Lab,PA,8-2-8-2,21.522245043,Nov-2014,1,6,radial,0,0.05,R,8.0904,1,0.05,4,2,Female,White,Not Hispanic or Latino,English,Lab,PA,8-2-8-2,21.522245043,Nov-2014,1,6,linear,0.2,0,L,3.8925,1,0.2,2,8,Female,White,Not Hispanic or Latino,English,Lab,PA,8-2-8-2,21.522245043,Nov-2014,1,6,linear,0.2,0,R,5.2542,0,0.2,3,8,Female,White,Not Hispanic or Latino,English,Lab,PA,8-2-8-2,21.522245043,Nov-2014,1,7,radial,0,0.2,R,2.8694,1,0.2,1,2,Female,White,Not Hispanic or Latino,English,Lab,PA,8-2-8-2,21.522245043,Nov-2014,1,7,radial,0,0.2,R,0.81745,1,0.2,4,2,Female,White,Not Hispanic or Latino,English,Lab,PA,8-2-8-2,21.522245043,Nov-2014,1,7,linear,0,0.1,L,6.9774,0,0.1,2,8,Female,White,Not Hispanic or Latino,English,Lab,PA,8-2-8-2,21.522245043,Nov-2014,1,7,linear,0,0.1,R,3.7867,1,0.1,3,8,Female,White,Not Hispanic or Latino,English,Lab,PA,8-2-8-2,21.522245043,Nov-2014,1,8,linear,0,0.15,L,2.4189,0,0.15,1,2,Female,White,Not Hispanic or Latino,English,Lab,PA,8-2-8-2,21.522245043,Nov-2014,1,8,linear,0,0.15,R,2.1376,1,0.15,4,2,Female,White,Not Hispanic or Latino,English,Lab,PA,8-2-8-2,21.522245043,Nov-2014,1,8,linear,0.15,0,L,8.6903,1,0.15,2,8,Female,White,Not Hispanic or Latino,English,Lab,PA,8-2-8-2,21.522245043,Nov-2014,1,8,linear,0.15,0,L,1.7682,1,0.15,3,8,Female,White,Not Hispanic or Latino,English,Lab,PA,8-2-8-2,21.522245043,Nov-2014,1,9,radial,0,0.15,R,2.0743,1,0.15,1,2,Female,White,Not Hispanic or Latino,English,Lab,PA,8-2-8-2,21.522245043,Nov-2014,1,9,radial,0,0.15,R,1.0513,1,0.15,4,2,Female,White,Not Hispanic or Latino,English,Lab,PA,8-2-8-2,21.522245043,Nov-2014,1,9,radial,0,0.1,R,2.9362,1,0.1,2,8,Female,White,Not Hispanic or Latino,English,Lab,PA,8-2-8-2,21.522245043,Nov-2014,1,9,radial,0,0.1,R,6.539,1,0.1,3,8,Female,White,Not Hispanic or Latino,English,Lab,PA,8-2-8-2,21.522245043,Nov-2014,1,10,linear,0,0.1,L,2.1684,0,0.1,1,2,Female,White,Not Hispanic or Latino,English,Lab,PA,8-2-8-2,21.522245043,Nov-2014,1,10,linear,0,0.1,R,2.1352,1,0.1,4,2,Female,White,Not Hispanic or Latino,English,Lab,PA,8-2-8-2,21.522245043,Nov-2014,1,10,linear,0.05,0,R,8.6743,0,0.05,2,8,Female,White,Not Hispanic or Latino,English,Lab,PA,8-2-8-2,21.522245043,Nov-2014,1,10,linear,0.05,0,L,2.002,1,0.05,3,8,Female,White,Not Hispanic or Latino,English,Lab,PA,8-2-8-2,21.522245043,Nov-2014,1,11,radial,0.05,0,R,7.3729,0,0.05,1,2,Female,White,Not Hispanic or Latino,English,Lab,PA,8-2-8-2,21.522245043,Nov-2014,1,11,radial,0.05,0,R,2.0551,0,0.05,4,2,Female,White,Not Hispanic or Latino,English,Lab,PA,8-2-8-2,21.522245043,Nov-2014,1,11,radial,0,0.05,None,0,0,0.05,2,8,Female,White,Not Hispanic or Latino,English,Lab,PA,8-2-8-2,21.522245043,Nov-2014,1,11,radial,0,0.05,R,2.0351,1,0.05,3,8,Female,White,Not Hispanic or Latino,English,Lab,PA,8-2-8-2,21.522245043,Nov-2014,1,12,linear,0,0.05,L,1.2237,0,0.05,1,2,Female,White,Not Hispanic or Latino,English,Lab,PA,8-2-8-2,21.522245043,Nov-2014,1,12,linear,0,0.05,L,6.4813,0,0.05,4,2,Female,White,Not Hispanic or Latino,English,Lab,PA,8-2-8-2,21.522245043,Nov-2014,1,12,radial,0.2,0,L,0.93446,1,0.2,2,8,Female,White,Not Hispanic or Latino,English,Lab,PA,8-2-8-2,21.522245043,Nov-2014,1,12,radial,0.2,0,L,0.63959,1,0.2,3,8,Female,White,Not Hispanic or Latino,English,Lab,PA,8-2-8-2,21.522245043,Nov-2014,1,13,radial,0.15,0,L,2.3186,1,0.15,1,2,Female,White,Not Hispanic or Latino,English,Lab,PA,8-2-8-2,21.522245043,Nov-2014,1,13,radial,0.15,0,L,0.73555,1,0.15,4,2,Female,White,Not Hispanic or Latino,English,Lab,PA,8-2-8-2,21.522245043,Nov-2014,1,13,linear,0,0.15,L,5.1546,0,0.15,2,8,Female,White,Not Hispanic or Latino,English,Lab,PA,8-2-8-2,21.522245043,Nov-2014,1,13,linear,0,0.15,L,2.169,0,0.15,3,8,Female,White,Not Hispanic or Latino,English,Lab,PA,8-2-8-2,21.522245043,Nov-2014,1,14,linear,0.15,0,L,3.1696,1,0.15,1,2,Female,White,Not Hispanic or Latino,English,Lab,PA,8-2-8-2,21.522245043,Nov-2014,1,14,linear,0.15,0,R,0.95087,0,0.15,4,2,Female,White,Not Hispanic or Latino,English,Lab,PA,8-2-8-2,21.522245043,Nov-2014,1,14,linear,0,0.2,R,5.3542,1,0.2,2,8,Female,White,Not Hispanic or Latino,English,Lab,PA,8-2-8-2,21.522245043,Nov-2014,1,14,linear,0,0.2,R,1.0178,1,0.2,3,8,Female,White,Not Hispanic or Latino,English,Lab,PA,8-2-8-2,21.522245043,Nov-2014,1,15,radial,0,0.1,L,5.8547,0,0.1,1,2,Female,White,Not Hispanic or Latino,English,Lab,PA,8-2-8-2,21.522245043,Nov-2014,1,15,radial,0,0.1,R,3.5031,1,0.1,4,2,Female,White,Not Hispanic or Latino,English,Lab,PA,8-2-8-2,21.522245043,Nov-2014,1,15,linear,0.1,0,L,9.8751,1,0.1,2,8,Female,White,Not Hispanic or Latino,English,Lab,PA,8-2-8-2,21.52224504