"","ParticipantID","SessionDate","Block","Trial","PatternType","LeftCoh","RightCoh","Response","RT","Acc","Coh","Run","DegPSec","session.id","session.name","participant.gender","participant.race","participant.ethnicity","participant.language","participant.setting","participant.state","task.ident","task2.ident","task2.description","group.ident","AgeYears"
"1",1,2014-10-13,1,4,"linear",0.05,0,"L",1.1344,"TRUE",0.05,1,2,6498,NA,"Male","White","Not Hispanic or Latino","English","Lab","PA","radial-laminar-8dps-05-10-15-20-pct-coh","radial-laminar-2dps-05-10-15-20-pct-coh","2 deg/s test with 5, 10, 15, 20% coherence levels","2-8",21.864476386037
"2",1,2014-10-13,1,12,"linear",0,0.05,"L",2.1412,"FALSE",0.05,1,2,6498,NA,"Male","White","Not Hispanic or Latino","English","Lab","PA","radial-laminar-8dps-05-10-15-20-pct-coh","radial-laminar-2dps-05-10-15-20-pct-coh","2 deg/s test with 5, 10, 15, 20% coherence levels","2-8",21.864476386037
"3",1,2014-10-13,2,4,"linear",0.05,0,"R",4.4376,"FALSE",0.05,1,2,6498,NA,"Male","White","Not Hispanic or Latino","English","Lab","PA","radial-laminar-8dps-05-10-15-20-pct-coh","radial-laminar-2dps-05-10-15-20-pct-coh","2 deg/s test with 5, 10, 15, 20% coherence levels","2-8",21.864476386037
"4",1,2014-10-13,2,13,"linear",0,0.05,"R",3.1377,"TRUE",0.05,1,2,6498,NA,"Male","White","Not Hispanic or Latino","English","Lab","PA","radial-laminar-8dps-05-10-15-20-pct-coh","radial-laminar-2dps-05-10-15-20-pct-coh","2 deg/s test with 5, 10, 15, 20% coherence levels","2-8",21.864476386037
"5",1,2014-10-13,3,7,"linear",0.05,0,"R",2.7523,"FALSE",0.05,1,2,6498,NA,"Male","White","Not Hispanic or Latino","English","Lab","PA","radial-laminar-8dps-05-10-15-20-pct-coh","radial-laminar-2dps-05-10-15-20-pct-coh","2 deg/s test with 5, 10, 15, 20% coherence levels","2-8",21.864476386037
"6",1,2014-10-13,3,15,"linear",0,0.05,"R",1.5181,"TRUE",0.05,1,2,6498,NA,"Male","White","Not Hispanic or Latino","English","Lab","PA","radial-laminar-8dps-05-10-15-20-pct-coh","radial-laminar-2dps-05-10-15-20-pct-coh","2 deg/s test with 5, 10, 15, 20% coherence levels","2-8",21.864476386037
"7",1,2014-10-13,4,5,"linear",0.05,0,"L",1.0846,"TRUE",0.05,1,2,6498,NA,"Male","White","Not Hispanic or Latino","English","Lab","PA","radial-laminar-8dps-05-10-15-20-pct-coh","radial-laminar-2dps-05-10-15-20-pct-coh","2 deg/s test with 5, 10, 15, 20% coherence levels","2-8",21.864476386037
"8",1,2014-10-13,4,12,"linear",0,0.05,"R",1.9683,"TRUE",0.05,1,2,6498,NA,"Male","White","Not Hispanic or Latino","English","Lab","PA","radial-laminar-8dps-05-10-15-20-pct-coh","radial-laminar-2dps-05-10-15-20-pct-coh","2 deg/s test with 5, 10, 15, 20% coherence levels","2-8",21.864476386037
"9",1,2014-10-13,5,6,"linear",0.05,0,"L",2.9196,"TRUE",0.05,1,2,6498,NA,"Male","White","Not Hispanic or Latino","English","Lab","PA","radial-laminar-8dps-05-10-15-20-pct-coh","radial-laminar-2dps-05-10-15-20-pct-coh","2 deg/s test with 5, 10, 15, 20% coherence levels","2-8",21.864476386037
"10",1,2014-10-13,5,15,"linear",0,0.05,"R",3.737,"TRUE",0.05,1,2,6498,NA,"Male","White","Not Hispanic or Latino","English","Lab","PA","radial-laminar-8dps-05-10-15-20-pct-coh","radial-laminar-2dps-05-10-15-20-pct-coh","2 deg/s test with 5, 10, 15, 20% coherence levels","2-8",21.864476386037
"11",1,2014-10-13,1,1,"linear",0.1,0,"L",3.0539,"TRUE",0.1,1,2,6498,NA,"Male","White","Not Hispanic or Latino","English","Lab","PA","radial-laminar-8dps-05-10-15-20-pct-coh","radial-laminar-2dps-05-10-15-20-pct-coh","2 deg/s test with 5, 10, 15, 20% coherence levels","2-8",21.864476386037
"12",1,2014-10-13,1,10,"linear",0,0.1,"L",1.939,"FALSE",0.1,1,2,6498,NA,"Male","White","Not Hispanic or Latino","English","Lab","PA","radial-laminar-8dps-05-10-15-20-pct-coh","radial-laminar-2dps-05-10-15-20-pct-coh","2 deg/s test with 5, 10, 15, 20% coherence levels","2-8",21.864476386037
"13",1,2014-10-13,2,2,"linear",0.1,0,"L",1.3216,"TRUE",0.1,1,2,6498,NA,"Male","White","Not Hispanic or Latino","English","Lab","PA","radial-laminar-8dps-05-10-15-20-pct-coh","radial-laminar-2dps-05-10-15-20-pct-coh","2 deg/s test with 5, 10, 15, 20% coherence levels","2-8",21.864476386037
"14",1,2014-10-13,2,9,"linear",0,0.1,"L",1.7683,"FALSE",0.1,1,2,6498,NA,"Male","White","Not Hispanic or Latino","English","Lab","PA","radial-laminar-8dps-05-10-15-20-pct-coh","radial-laminar-2dps-05-10-15-20-pct-coh","2 deg/s test with 5, 10, 15, 20% coherence levels","2-8",21.864476386037
"15",1,2014-10-13,3,5,"linear",0.1,0,"R",2.686,"FALSE",0.1,1,2,6498,NA,"Male","White","Not Hispanic or Latino","English","Lab","PA","radial-laminar-8dps-05-10-15-20-pct-coh","radial-laminar-2dps-05-10-15-20-pct-coh","2 deg/s test with 5, 10, 15, 20% coherence levels","2-8",21.864476386037
"16",1,2014-10-13,3,14,"linear",0,0.1,"R",2.0564,"TRUE",0.1,1,2,6498,NA,"Male","White","Not Hispanic or Latino","English","Lab","PA","radial-laminar-8dps-05-10-15-20-pct-coh","radial-laminar-2dps-05-10-15-20-pct-coh","2 deg/s test with 5, 10, 15, 20% coherence levels","2-8",21.864476386037
"17",1,2014-10-13,4,1,"linear",0.1,0,"L",1.2348,"TRUE",0.1,1,2,6498,NA,"Male","White","Not Hispanic or Latino","English","Lab","PA","radial-laminar-8dps-05-10-15-20-pct-coh","radial-laminar-2dps-05-10-15-20-pct-coh","2 deg/s test with 5, 10, 15, 20% coherence levels","2-8",21.864476386037
"18",1,2014-10-13,4,10,"linear",0,0.1,"R",2.1351,"TRUE",0.1,1,2,6498,NA,"Male","White","Not Hispanic or Latino","English","Lab","PA","radial-laminar-8dps-05-10-15-20-pct-coh","radial-laminar-2dps-05-10-15-20-pct-coh","2 deg/s test with 5, 10, 15, 20% coherence levels","2-8",21.864476386037
"19",1,2014-10-13,5,2,"linear",0.1,0,"L",2.052,"TRUE",0.1,1,2,6498,NA,"Male","White","Not Hispanic or Latino","English","Lab","PA","radial-laminar-8dps-05-10-15-20-pct-coh","radial-laminar-2dps-05-10-15-20-pct-coh","2 deg/s test with 5, 10, 15, 20% coherence levels","2-8",21.864476386037
"20",1,2014-10-13,5,14,"linear",0,0.1,"R",1.1176,"TRUE",0.1,1,2,6498,NA,"Male","White","Not Hispanic or Latino","English","Lab","PA","radial-laminar-8dps-05-10-15-20-pct-coh","radial-laminar-2dps-05-10-15-20-pct-coh","2 deg/s test with 5, 10, 15, 20% coherence levels","2-8",21.864476386037
"21",1,2014-10-13,1,8,"linear",0,0.15,"L",1.0178,"FALSE",0.15,1,2,6498,NA,"Male","White","Not Hispanic or Latino","English","Lab","PA","radial-laminar-8dps-05-10-15-20-pct-coh","radial-laminar-2dps-05-10-15-20-pct-coh","2 deg/s test with 5, 10, 15, 20% coherence levels","2-8",21.864476386037
"22",1,2014-10-13,1,14,"linear",0.15,0,"L",0.88476,"TRUE",0.15,1,2,6498,NA,"Male","White","Not Hispanic or Latino","English","Lab","PA","radial-laminar-8dps-05-10-15-20-pct-coh","radial-laminar-2dps-05-10-15-20-pct-coh","2 deg/s test with 5, 10, 15, 20% coherence levels","2-8",21.864476386037
"23",1,2014-10-13,2,8,"linear",0,0.15,"R",1.835,"TRUE",0.15,1,2,6498,NA,"Male","White","Not Hispanic or Latino","English","Lab","PA","radial-laminar-8dps-05-10-15-20-pct-coh","radial-laminar-2dps-05-10-15-20-pct-coh","2 deg/s test with 5, 10, 15, 20% coherence levels","2-8",21.864476386037
"24",1,2014-10-13,2,16,"linear",0.15,0,"L",1.0873,"TRUE",0.15,1,2,6498,NA,"Male","White","Not Hispanic or Latino","English","Lab","PA","radial-laminar-8dps-05-10-15-20-pct-coh","radial-laminar-2dps-05-10-15-20-pct-coh","2 deg/s test with 5, 10, 15, 20% coherence levels","2-8",21.864476386037
"25",1,2014-10-13,3,9,"linear",0,0.15,"R",1.0009,"TRUE",0.15,1,2,6498,NA,"Male","White","Not Hispanic or Latino","English","Lab","PA","radial-laminar-8dps-05-10-15-20-pct-coh","radial-laminar-2dps-05-10-15-20-pct-coh","2 deg/s test with 5, 10, 15, 20% coherence levels","2-8",21.864476386037
"26",1,2014-10-13,3,16,"linear",0.15,0,"L",1.3011,"TRUE",0.15,1,2,6498,NA,"Male","White","Not Hispanic or Latino","English","Lab","PA","radial-laminar-8dps-05-10-15-20-pct-coh","radial-laminar-2dps-05-10-15-20-pct-coh","2 deg/s test with 5, 10, 15, 20% coherence levels","2-8",21.864476386037
"27",1,2014-10-13,4,9,"linear",0,0.15,"L",1.3343,"FALSE",0.15,1,2,6498,NA,"Male","White","Not Hispanic or Latino","English","Lab","PA","radial-laminar-8dps-05-10-15-20-pct-coh","radial-laminar-2dps-05-10-15-20-pct-coh","2 deg/s test with 5, 10, 15, 20% coherence levels","2-8",21.864476386037
"28",1,2014-10-13,4,14,"linear",0.15,0,"L",2.155,"TRUE",0.15,1,2,6498,NA,"Male","White","Not Hispanic or Latino","English","Lab","PA","radial-laminar-8dps-05-10-15-20-pct-coh","radial-laminar-2dps-05-10-15-20-pct-coh","2 deg/s test with 5, 10, 15, 20% coherence levels","2-8",21.864476386037
"29",1,2014-10-13,5,13,"linear",0,0.15,"R",1.4231,"TRUE",0.15,1,2,6498,NA,"Male","White","Not Hispanic or Latino","English","Lab","PA","radial-laminar-8dps-05-10-15-20-pct-coh","radial-laminar-2dps-05-10-15-20-pct-coh","2 deg/s test with 5, 10, 15, 20% coherence levels","2-8",21.864476386037
"30",1,2014-10-13,5,16,"linear",0.15,0,"L",1.718,"TRUE",0.15,1,2,6498,NA,"Male","White","Not Hispanic or Latino","English","Lab","PA","radial-laminar-8dps-05-10-15-20-pct-coh","radial-laminar-2dps-05-10-15-20-pct-coh","2 deg/s test with 5, 10, 15, 20% coherence levels","2-8",21.864476386037
"31",1,2014-10-13,1,2,"linear",0.2,0,"L",0.85076,"TRUE",0.2,1,2,6498,NA,"Male","White","Not Hispanic or Latino","English","Lab","PA","radial-laminar-8dps-05-10-15-20-pct-coh","radial-laminar-2dps-05-10-15-20-pct-coh","2 deg/s test with 5, 10, 15, 20% coherence levels","2-8",21.864476386037
"32",1,2014-10-13,1,5,"linear",0,0.2,"R",1.0344,"TRUE",0.2,1,2,6498,NA,"Male","White","Not Hispanic or Latino","English","Lab","PA","radial-laminar-8dps-05-10-15-20-pct-coh","radial-laminar-2dps-05-10-15-20-pct-coh","2 deg/s test with 5, 10, 15, 20% coherence levels","2-8",21.864476386037
"33",1,2014-10-13,2,3,"linear",0.2,0,"L",0.86772,"TRUE",0.2,1,2,6498,NA,"Male","White","Not Hispanic or Latino","English","Lab","PA","radial-laminar-8dps-05-10-15-20-pct-coh","radial-laminar-2dps-05-10-15-20-pct-coh","2 deg/s test with 5, 10, 15, 20% coherence levels","2-8",21.864476386037
"34",1,2014-10-13,2,5,"linear",0,0.2,"R",0.90089,"TRUE",0.2,1,2,6498,NA,"Male","White","Not Hispanic or Latino","English","Lab","PA","radial-laminar-8dps-05-10-15-20-pct-coh","radial-laminar-2dps-05-10-15-20-pct-coh","2 deg/s test with 5, 10, 15, 20% coherence levels","2-8",21.864476386037
"35",1,2014-10-13,3,6,"linear",0.2,0,"L",1.151,"TRUE",0.2,1,2,6498,NA,"Male","White","Not Hispanic or Latino","English","Lab","PA","radial-laminar-8dps-05-10-15-20-pct-coh","radial-laminar-2dps-05-10-15-20-pct-coh","2 deg/s test with 5, 10, 15, 20% coherence levels","2-8",21.864476386037
"36",1,2014-10-13,3,8,"linear",0,0.2,"L",1.1344,"FALSE",0.2,1,2,6498,NA,"Male","White","Not Hispanic or Latino","English","Lab","PA","radial-laminar-8dps-05-10-15-20-pct-coh","radial-laminar-2dps-05-10-15-20-pct-coh","2 deg/s test with 5, 10, 15, 20% coherence levels","2-8",21.864476386037
"37",1,2014-10-13,4,4,"linear",0.2,0,"L",0.86751,"TRUE",0.2,1,2,6498,NA,"Male","White","Not Hispanic or Latino","English","Lab","PA","radial-laminar-8dps-05-10-15-20-pct-coh","radial-laminar-2dps-05-10-15-20-pct-coh","2 deg/s test with 5, 10, 15, 20% coherence levels","2-8",21.864476386037
"38",1,2014-10-13,4,8,"linear",0,0.2,"R",1.1346,"TRUE",0.2,1,2,6498,NA,"Male","White","Not Hispanic or Latino","English","Lab","PA","radial-laminar-8dps-05-10-15-20-pct-coh","radial-laminar-2dps-05-10-15-20-pct-coh","2 deg/s test with 5, 10, 15, 20% coherence levels","2-8",21.864476386037
"39",1,2014-10-13,5,3,"linear",0.2,0,"L",1.2381,"TRUE",0.2,1,2,6498,NA,"Male","White","Not Hispanic or Latino","English","Lab","PA","radial-laminar-8dps-05-10-15-20-pct-coh","radial-laminar-2dps-05-10-15-20-pct-coh","2 deg/s test with 5, 10, 15, 20% coherence levels","2-8",21.864476386037
"40",1,2014-10-13,5,7,"linear",0,0.2,"R",0.95095,"TRUE",0.2,1,2,6498,NA,"Male","White","Not Hispanic or Latino","English","Lab","PA","radial-laminar-8dps-05-10-15-20-pct-coh","radial-laminar-2dps-05-10-15-20-pct-coh","2 deg/s test with 5, 10, 15, 20% coherence levels","2-8",21.864476386037
"41",1,2014-10-13,1,6,"radial",0,0.05,"L",1.1844,"FALSE",0.05,1,2,6498,NA,"Male","White","Not Hispanic or Latino","English","Lab","PA","radial-laminar-8dps-05-10-15-20-pct-coh","radial-laminar-2dps-05-10-15-20-pct-coh","2 deg/s test with 5, 10, 15, 20% coherence levels","2-8",21.864476386037
"42",1,2014-10-13,1,11,"radial",0.05,0,"R",2.3854,"FALSE",0.05,1,2,6498,NA,"Male","White","Not Hispanic or Latino","English","Lab","PA","radial-laminar-8dps-05-10-15-20-pct-coh","radial-laminar-2dps-05-10-15-20-pct-coh","2 deg/s test with 5, 10, 15, 20% coherence levels","2-8",21.864476386037
"43",1,2014-10-13,2,6,"radial",0,0.05,"L",1.4181,"FALSE",0.05,1,2,6498,NA,"Male","White","Not Hispanic or Latino","English","Lab","PA","radial-laminar-8dps-05-10-15-20-pct-coh","radial-laminar-2dps-05-10-15-20-pct-coh","2 deg/s test with 5, 10, 15, 20% coherence levels","2-8",21.864476386037
"44",1,2014-10-13,2,11,"radial",0.05,0,"R",2.2852,"FALSE",0.05,1,2,6498,NA,"Male","White","Not Hispanic or Latino","English","Lab","PA","radial-laminar-8dps-05-10-15-20-pct-coh","radial-laminar-2dps-05-10-15-20-pct-coh","2 deg/s test with 5, 10, 15, 20% coherence levels","2-8",21.864476386037
"45",1,2014-10-13,3,2,"radial",0,0.05,"L",1.0511,"FALSE",0.05,1,2,6498,NA,"Male","White","Not Hispanic or Latino","English","Lab","PA","radial-laminar-8dps-05-10-15-20-pct-coh","radial-laminar-2dps-05-10-15-20-pct-coh","2 deg/s test with 5, 10, 15, 20% coherence levels","2-8",21.864476386037
"46",1,2014-10-13,3,10,"radial",0.05,0,"L",3.2201,"TRUE",0.05,1,2,6498,NA,"Male","White","Not Hispanic or Latino","English","Lab","PA","radial-laminar-8dps-05-10-15-20-pct-coh","radial-laminar-2dps-05-10-15-20-pct-coh","2 deg/s test with 5, 10, 15, 20% coherence levels","2-8",21.864476386037
"47",1,2014-10-13,4,3,"radial",0,0.05,"R",2.2352,"TRUE",0.05,1,2,6498,NA,"Male","White","Not Hispanic or Latino","English","Lab","PA","radial-laminar-8dps-05-10-15-20-pct-coh","radial-laminar-2dps-05-10-15-20-pct-coh","2 deg/s test with 5, 10, 15, 20% coherence levels","2-8",21.864476386037
"48",1,2014-10-13,4,11,"radial",0.05,0,"L",1.8351,"TRUE",0.05,1,2,6498,NA,"Male","White","Not Hispanic or Latino","English","Lab","PA","radial-laminar-8dps-05-10-15-20-pct-coh","radial-laminar-2dps-05-10-15-20-pct-coh","2 deg/s test with 5, 10, 15, 20% coherence levels","2-8",21.864476386037
"49",1,2014-10-13,5,4,"radial",0,0.05,"L",1.5014,"FALSE",0.05,1,2,6498,NA,"Male","White","Not Hispanic or Latino","English","Lab","PA","radial-laminar-8dps-05-10-15-20-pct-coh","radial-laminar-2dps-05-10-15-20-pct-coh","2 deg/s test with 5, 10, 15, 20% coherence levels","2-8",21.864476386037
"50",1,2014-10-13,5,9,"radial",0.05,0,"R",2.1556,"FALSE",0.05,1,2,6498,NA,"Male","White","Not Hispanic or Latino","English","Lab","PA","radial-laminar-8dps-05-10-15-20-pct-coh","radial-laminar-2dps-05-10-15-20-pct-coh","2 deg/s test with 5, 10, 15, 20% coherence levels","2-8",21.864476386037
"51",1,2014-10-13,1,15,"radial",0,0.1,"L",2.0746,"FALSE",0.1,1,2,6498,NA,"Male","White","Not Hispanic or Latino","English","Lab","PA","radial-laminar-8dps-05-10-15-20-pct-coh","radial-laminar-2dps-05-10-15-20-pct-coh","2 deg/s test with 5, 10, 15, 20% coherence levels","2-8",21.864476386037
"52",1,2014-10-13,1,16,"radial",0.1,0,"R",2.1296,"FALSE",0.1,1,2,6498,NA,"Male","White","Not Hispanic or Latino","English","Lab","PA","radial-laminar-8dps-05-10-15-20-pct-coh","radial-laminar-2dps-05-10-15-20-pct-coh","2 deg/s test with 5, 10, 15, 20% coherence levels","2-8",21.864476386037
"53",1,2014-10-13,2,14,"radial",0,0.1,"L",1.8408,"FALSE",0.1,1,2,6498,NA,"Male","White","Not Hispanic or Latino","English","Lab","PA","radial-laminar-8dps-05-10-15-20-pct-coh","radial-laminar-2dps-05-10-15-20-pct-coh","2 deg/s test with 5, 10, 15, 20% coherence levels","2-8",21.864476386037
"54",1,2014-10-13,2,15,"radial",0.1,0,"L",2.869,"TRUE",0.1,1,2,6498,NA,"Male","White","Not Hispanic or Latino","English","Lab","PA","radial-laminar-8dps-05-10-15-20-pct-coh","radial-laminar-2dps-05-10-15-20-pct-coh","2 deg/s test with 5, 10, 15, 20% coherence levels","2-8",21.864476386037
"55",1,2014-10-13,3,12,"radial",0,0.1,"R",2.8863,"TRUE",0.1,1,2,6498,NA,"Male","White","Not Hispanic or Latino","English","Lab","PA","radial-laminar-8dps-05-10-15-20-pct-coh","radial-laminar-2dps-05-10-15-20-pct-coh","2 deg/s test with 5, 10, 15, 20% coherence levels","2-8",21.864476386037
"56",1,2014-10-13,3,13,"radial",0.1,0,"L",1.4223,"TRUE",0.1,1,2,6498,NA,"Male","White","Not Hispanic or Latino","English","Lab","PA","radial-laminar-8dps-05-10-15-20-pct-coh","radial-laminar-2dps-05-10-15-20-pct-coh","2 deg/s test with 5, 10, 15, 20% coherence levels","2-8",21.864476386037
"57",1,2014-10-13,4,15,"radial",0,0.1,"R",1.7182,"TRUE",0.1,1,2,6498,NA,"Male","White","Not Hispanic or Latino","English","Lab","PA","radial-laminar-8dps-05-10-15-20-pct-coh","radial-laminar-2dps-05-10-15-20-pct-coh","2 deg/s test with 5, 10, 15, 20% coherence levels","2-8",21.864476386037
"58",1,2014-10-13,4,16,"radial",0.1,0,"R",2.7358,"FALSE",0.1,1,2,6498,NA,"Male","White","Not Hispanic or Latino","English","Lab","PA","radial-laminar-8dps-05-10-15-20-pct-coh","radial-laminar-2dps-05-10-15-20-pct-coh","2 deg/s test with 5, 10, 15, 20% coherence levels","2-8",21.864476386037
"59",1,2014-10-13,5,11,"radial",0,0.1,"R",1.4945,"TRUE",0.1,1,2,6498,NA,"Male","White","Not Hispanic or Latino","English","Lab","PA","radial-laminar-8dps-05-10-15-20-pct-coh","radial-laminar-2dps-05-10-15-20-pct-coh","2 deg/s test with 5, 10, 15, 20% coherence levels","2-8",21.864476386037
"60",1,2014-10-13,5,12,"radial",0.1,0,"R",2.1351,"FALSE",0.1,1,2,6498,NA,"Male","White","Not Hispanic or Latino","English","Lab","PA","radial-laminar-8dps-05-10-15-20-pct-coh","radial-laminar-2dps-05-10-15-20-pct-coh","2 deg/s test with 5, 10, 15, 20% coherence levels","2-8",21.864476386037
"61",1,2014-10-13,1,9,"radial",0,0.15,"L",1.402,"FALSE",0.15,1,2,6498,NA,"Male","White","Not Hispanic or Latino","English","Lab","PA","radial-laminar-8dps-05-10-15-20-pct-coh","radial-laminar-2dps-05-10-15-20-pct-coh","2 deg/s test with 5, 10, 15, 20% coherence levels","2-8",21.864476386037
"62",1,2014-10-13,1,13,"radial",0.15,0,"L",1.1919,"TRUE",0.15,1,2,6498,NA,"Male","White","Not Hispanic or Latino","English","Lab","PA","radial-laminar-8dps-05-10-15-20-pct-coh","radial-laminar-2dps-05-10-15-20-pct-coh","2 deg/s test with 5, 10, 15, 20% coherence levels","2-8",21.864476386037
"63",1,2014-10-13,2,10,"radial",0,0.15,"R",0.93426,"TRUE",0.15,1,2,6498,NA,"Male","White","Not Hispanic or Latino","English","Lab","PA","radial-laminar-8dps-05-10-15-20-pct-coh","radial-laminar-2dps-05-10-15-20-pct-coh","2 deg/s test with 5, 10, 15, 20% coherence levels","2-8",21.864476386037
"64",1,2014-10-13,2,12,"radial",0.15,0,"L",0.96759,"TRUE",0.15,1,2,6498,NA,"Male","White","Not Hispanic or Latino","English","Lab","PA","radial-laminar-8dps-05-10-15-20-pct-coh","radial-laminar-2dps-05-10-15-20-pct-coh","2 deg/s test with 5, 10, 15, 20% coherence levels","2-8",21.864476386037
"65",1,2014-10-13,3,4,"radial",0,0.15,"R",1.7348,"TRUE",0.15,1,2,6498,NA,"Male","White","Not Hispanic or Latino","English","Lab","PA","radial-laminar-8dps-05-10-15-20-pct-coh","radial-laminar-2dps-05-10-15-20-pct-coh","2 deg/s test with 5, 10, 15, 20% coherence levels","2-8",21.864476386037
"66",1,2014-10-13,3,11,"radial",0.15,0,"L",1.3346,"TRUE",0.15,1,2,6498,NA,"Male","White","Not Hispanic or Latino","English","Lab","PA","radial-laminar-8dps-05-10-15-20-pct-coh","radial-laminar-2dps-05-10-15-20-pct-coh","2 deg/s test with 5, 10, 15, 20% coherence levels","2-8",21.864476386037
"67",1,2014-10-13,4,7,"radial",0,0.15,"R",1.4854,"TRUE",0.15,1,2,6498,NA,"Male","White","Not Hispanic or Latino","English","Lab","PA","radial-laminar-8dps-05-10-15-20-pct-coh","radial-laminar-2dps-05-10-15-20-pct-coh","2 deg/s test with 5, 10, 15, 20% coherence levels","2-8",21.864476386037
"68",1,2014-10-13,4,13,"radial",0.15,0,"L",1.9038,"TRUE",0.15,1,2,6498,NA,"Male","White","Not Hispanic or Latino","English","Lab","PA","radial-laminar-8dps-05-10-15-20-pct-coh","radial-laminar-2dps-05-10-15-20-pct-coh","2 deg/s test with 5, 10, 15, 20% coherence levels","2-8",21.864476386037
"69",1,2014-10-13,5,8,"radial",0,0.15,"R",0.90103,"TRUE",0.15,1,2,6498,NA,"Male","White","Not Hispanic or Latino","English","Lab","PA","radial-laminar-8dps-05-10-15-20-pct-coh","radial-laminar-2dps-05-10-15-20-pct-coh","2 deg/s test with 5, 10, 15, 20% coherence levels","2-8",21.864476386037
"70",1,2014-10-13,5,10,"radial",0.15,0,"L",1.0681,"TRUE",0.15,1,2,6498,NA,"Male","White","Not Hispanic or Latino","English","Lab","PA","radial-laminar-8dps-05-10-15-20-pct-coh","radial-laminar-2dps-05-10-15-20-pct-coh","2 deg/s test with 5, 10, 15, 20% coherence levels","2-8",21.864476386037
"71",1,2014-10-13,1,3,"radial",0.2,0,"L",1.0013,"TRUE",0.2,1,2,6498,NA,"Male","White","Not Hispanic or Latino","English","Lab","PA","radial-laminar-8dps-05-10-15-20-pct-coh","radial-laminar-2dps-05-10-15-20-pct-coh","2 deg/s test with 5, 10, 15, 20% coherence levels","2-8",21.864476386037
"72",1,2014-10-13,1,7,"radial",0,0.2,"R",1.0174,"TRUE",0.2,1,2,6498,NA,"Male","White","Not Hispanic or Latino","English","Lab","PA","radial-laminar-8dps-05-10-15-20-pct-coh","radial-laminar-2dps-05-10-15-20-pct-coh","2 deg/s test with 5, 10, 15, 20% coherence levels","2-8",21.864476386037
"73",1,2014-10-13,2,1,"radial",0.2,0,"L",1.2012,"TRUE",0.2,1,2,6498,NA,"Male","White","Not Hispanic or Latino","English","Lab","PA","radial-laminar-8dps-05-10-15-20-pct-coh","radial-laminar-2dps-05-10-15-20-pct-coh","2 deg/s test with 5, 10, 15, 20% coherence levels","2-8",21.864476386037
"74",1,2014-10-13,2,7,"radial",0,0.2,"R",0.95096,"TRUE",0.2,1,2,6498,NA,"Male","White","Not Hispanic or Latino","English","Lab","PA","radial-laminar-8dps-05-10-15-20-pct-coh","radial-laminar-2dps-05-10-15-20-pct-coh","2 deg/s test with 5, 10, 15, 20% coherence levels","2-8",21.864476386037
"75",1,2014-10-13,3,1,"radial",0.2,0,"L",0.98428,"TRUE",0.2,1,2,6498,NA,"Male","White","Not Hispanic or Latino","English","Lab","PA","radial-laminar-8dps-05-10-15-20-pct-coh","radial-laminar-2dps-05-10-15-20-pct-coh","2 deg/s test with 5, 10, 15, 20% coherence levels","2-8",21.864476386037
"76",1,2014-10-13,3,3,"radial",0,0.2,"R",0.83418,"TRUE",0.2,1,2,6498,NA,"Male","White","Not Hispanic or Latino","English","Lab","PA","radial-laminar-8dps-05-10-15-20-pct-coh","radial-laminar-2dps-05-10-15-20-pct-coh","2 deg/s test with 5, 10, 15, 20% coherence levels","2-8",21.864476386037
"77",1,2014-10-13,4,2,"radial",0.2,0,"L",1.0177,"TRUE",0.2,1,2,6498,NA,"Male","White","Not Hispanic or Latino","English","Lab","PA","radial-laminar-8dps-05-10-15-20-pct-coh","radial-laminar-2dps-05-10-15-20-pct-coh","2 deg/s test with 5, 10, 15, 20% coherence levels","2-8",21.864476386037
"78",1,2014-10-13,4,6,"radial",0,0.2,"L",1.4241,"FALSE",0.2,1,2,6498,NA,"Male","White","Not Hispanic or Latino","English","Lab","PA","radial-laminar-8dps-05-10-15-20-pct-coh","radial-laminar-2dps-05-10-15-20-pct-coh","2 deg/s test with 5, 10, 15, 20% coherence levels","2-8",21.864476386037
"79",1,2014-10-13,5,1,"radial",0.2,0,"L",0.95111,"TRUE",0.2,1,2,6498,NA,"Male","White","Not Hispanic or Latino","English","Lab","PA","radial-laminar-8dps-05-10-15-20-pct-coh","radial-laminar-2dps-05-10-15-20-pct-coh","2 deg/s test with 5, 10, 15, 20% coherence levels","2-8",21.864476386037
"80",1,2014-10-13,5,5,"radial",0,0.2,"R",1.785,"TRUE",0.2,1,2,6498,NA,"Male","White","Not Hispanic or Latino","English","Lab","PA","radial-laminar-8dps-05-10-15-20-pct-coh","radial-laminar-2dps-05-10-15-20-pct-coh","2 deg/s test with 5, 10, 15, 20% coherence levels","2-8",21.864476386037
"81",1,2014-10-13,1,10,"linear",0.05,0,"L",2.769,"TRUE",0.05,2,8,6498,NA,"Male","White","Not Hispanic or Latino","English","Lab","PA","radial-laminar-8dps-05-10-15-20-pct-coh","radial-laminar-2dps-05-10-15-20-pct-coh","2 deg/s test with 5, 10, 15, 20% coherence levels","2-8",21.864476386037
"82",1,2014-10-13,1,16,"linear",0,0.05,"R",3.4867,"TRUE",0.05,2,8,6498,NA,"Male","White","Not Hispanic or Latino","English","Lab","PA","radial-laminar-8dps-05-10-15-20-pct-coh","radial-laminar-2dps-05-10-15-20-pct-coh","2 deg/s test with 5, 10, 15, 20% coherence levels","2-8",21.864476386037
"83",1,2014-10-13,2,10,"linear",0.05,0,"L",1.2845,"TRUE",0.05,2,8,6498,NA,"Male","White","Not Hispanic or Latino","English","Lab","PA","radial-laminar-8dps-05-10-15-20-pct-coh","radial-laminar-2dps-05-10-15-20-pct-coh","2 deg/s test with 5, 10, 15, 20% coherence levels","2-8",21.864476386037
"84",1,2014-10-13,2,16,"linear",0,0.05,"R",3.8866,"TRUE",0.05,2,8,6498,NA,"Male","White","Not Hispanic or Latino","English","Lab","PA","radial-laminar-8dps-05-10-15-20-pct-coh","radial-laminar-2dps-05-10-15-20-pct-coh","2 deg/s test with 5, 10, 15, 20% coherence levels","2-8",21.864476386037
"85",1,2014-10-13,3,12,"linear",0.05,0,"L",1.3919,"TRUE",0.05,2,8,6498,NA,"Male","White","Not Hispanic or Latino","English","Lab","PA","radial-laminar-8dps-05-10-15-20-pct-coh","radial-laminar-2dps-05-10-15-20-pct-coh","2 deg/s test with 5, 10, 15, 20% coherence levels","2-8",21.864476386037
"86",1,2014-10-13,3,16,"linear",0,0.05,"L",1.8349,"FALSE",0.05,2,8,6498,NA,"Male","White","Not Hispanic or Latino","English","Lab","PA","radial-laminar-8dps-05-10-15-20-pct-coh","radial-laminar-2dps-05-10-15-20-pct-coh","2 deg/s test with 5, 10, 15, 20% coherence levels","2-8",21.864476386037
"87",1,2014-10-13,4,12,"linear",0.05,0,"L",1.1105,"TRUE",0.05,2,8,6498,NA,"Male","White","Not Hispanic or Latino","English","Lab","PA","radial-laminar-8dps-05-10-15-20-pct-coh","radial-laminar-2dps-05-10-15-20-pct-coh","2 deg/s test with 5, 10, 15, 20% coherence levels","2-8",21.864476386037
"88",1,2014-10-13,4,16,"linear",0,0.05,"R",1.529,"TRUE",0.05,2,8,6498,NA,"Male","White","Not Hispanic or Latino","English","Lab","PA","radial-laminar-8dps-05-10-15-20-pct-coh","radial-laminar-2dps-05-10-15-20-pct-coh","2 deg/s test with 5, 10, 15, 20% coherence levels","2-8",21.864476386037
"89",1,2014-10-13,5,9,"linear",0.05,0,"L",0.834,"TRUE",0.05,2,8,6498,NA,"Male","White","Not Hispanic or Latino","English","Lab","PA","radial-laminar-8dps-05-10-15-20-pct-coh","radial-laminar-2dps-05-10-15-20-pct-coh","2 deg/s test with 5, 10, 15, 20% coherence levels","2-8",21.864476386037
"90",1,2014-10-13,5,16,"linear",0,0.05,"R",3.2529,"TRUE",0.05,2,8,6498,NA,"Male","White","Not Hispanic or Latino","English","Lab","PA","radial-laminar-8dps-05-10-15-20-pct-coh","radial-laminar-2dps-05-10-15-20-pct-coh","2 deg/s test with 5, 10, 15, 20% coherence levels","2-8",21.864476386037
"91",1,2014-10-13,1,5,"radial",0.05,0,"R",2.8529,"FALSE",0.05,2,8,6498,NA,"Male","White","Not Hispanic or Latino","English","Lab","PA","radial-laminar-8dps-05-10-15-20-pct-coh","radial-laminar-2dps-05-10-15-20-pct-coh","2 deg/s test with 5, 10, 15, 20% coherence levels","2-8",21.864476386037
"92",1,2014-10-13,1,11,"radial",0,0.05,"R",2.586,"TRUE",0.05,2,8,6498,NA,"Male","White","Not Hispanic or Latino","English","Lab","PA","radial-laminar-8dps-05-10-15-20-pct-coh","radial-laminar-2dps-05-10-15-20-pct-coh","2 deg/s test with 5, 10, 15, 20% coherence levels","2-8",21.864476386037
"93",1,2014-10-13,2,8,"radial",0.05,0,"R",1.3345,"FALSE",0.05,2,8,6498,NA,"Male","White","Not Hispanic or Latino","English","Lab","PA","radial-laminar-8dps-05-10-15-20-pct-coh","radial-laminar-2dps-05-10-15-20-pct-coh","2 deg/s test with 5, 10, 15, 20% coherence levels","2-8",21.864476386037
"94",1,2014-10-13,2,11,"radial",0,0.05,"L",2.7857,"FALSE",0.05,2,8,6498,NA,"Male","White","Not Hispanic or Latino","English","Lab","PA","radial-laminar-8dps-05-10-15-20-pct-coh","radial-laminar-2dps-05-10-15-20-pct-coh","2 deg/s test with 5, 10, 15, 20% coherence levels","2-8",21.864476386037
"95",1,2014-10-13,3,5,"radial",0.05,0,"R",1.568,"FALSE",0.05,2,8,6498,NA,"Male","White","Not Hispanic or Latino","English","Lab","PA","radial-laminar-8dps-05-10-15-20-pct-coh","radial-laminar-2dps-05-10-15-20-pct-coh","2 deg/s test with 5, 10, 15, 20% coherence levels","2-8",21.864476386037
"96",1,2014-10-13,3,7,"radial",0,0.05,"L",2.5358,"FALSE",0.05,2,8,6498,NA,"Male","White","Not Hispanic or Latino","English","Lab","PA","radial-laminar-8dps-05-10-15-20-pct-coh","radial-laminar-2dps-05-10-15-20-pct-coh","2 deg/s test with 5, 10, 15, 20% coherence levels","2-8",21.864476386037
"97",1,2014-10-13,4,7,"radial",0.05,0,"L",1.2345,"TRUE",0.05,2,8,6498,NA,"Male","White","Not Hispanic or Latino","English","Lab","PA","radial-laminar-8dps-05-10-15-20-pct-coh","radial-laminar-2dps-05-10-15-20-pct-coh","2 deg/s test with 5, 10, 15, 20% coherence levels","2-8",21.864476386037
"98",1,2014-10-13,4,10,"radial",0,0.05,"L",2.7534,"FALSE",0.05,2,8,6498,NA,"Male","White","Not Hispanic or Latino","English","Lab","PA","radial-laminar-8dps-05-10-15-20-pct-coh","radial-laminar-2dps-05-10-15-20-pct-coh","2 deg/s test with 5, 10, 15, 20% coherence levels","2-8",21.864476386037
"99",1,2014-10-13,5,8,"radial",0.05,0,"R",1.3514,"FALSE",0.05,2,8,6498,NA,"Male","White","Not Hispanic or Latino","English","Lab","PA","radial-laminar-8dps-05-10-15-20-pct-coh","radial-laminar-2dps-05-10-15-20-pct-coh","2 deg/s test with 5, 10, 15, 20% coherence levels","2-8",21.864476386037
"100",1,2014-10-13,5,13,"radial",0,0.05,"L",2.7525,"FALSE",0.05,2,8,6498,NA,"Male","White","Not Hispanic or Latino","English","Lab","PA","radial-laminar-8dps-05-10-15-20-pct-coh","radial-laminar-2dps-05-10-15-20-pct-coh","2 deg/s test with 5, 10, 15, 20% coherence levels","2-8",21.864476386037
"101",1,2014-10-13,1,7,"linear",0,0.1,"L",2.4021,"FALSE",0.1,2,8,6498,NA,"Male","White","Not Hispanic or Latino","English","Lab","PA","radial-laminar-8dps-05-10-15-20-pct-coh","radial-laminar-2dps-05-10-15-20-pct-coh","2 deg/s test with 5, 10, 15, 20% coherence levels","2-8",21.864476386037
"102",1,2014-10-13,1,15,"linear",0.1,0,"R",3.7207,"FALSE",0.1,2,8,6498,NA,"Male","White","Not Hispanic or Latino","English","Lab","PA","radial-laminar-8dps-05-10-15-20-pct-coh","radial-laminar-2dps-05-10-15-20-pct-coh","2 deg/s test with 5, 10, 15, 20% coherence levels","2-8",21.864476386037
"103",1,2014-10-13,2,3,"linear",0,0.1,"L",4.0909,"FALSE",0.1,2,8,6498,NA,"Male","White","Not Hispanic or Latino","English","Lab","PA","radial-laminar-8dps-05-10-15-20-pct-coh","radial-laminar-2dps-05-10-15-20-pct-coh","2 deg/s test with 5, 10, 15, 20% coherence levels","2-8",21.864476386037
"104",1,2014-10-13,2,14,"linear",0.1,0,"L",1.835,"TRUE",0.1,2,8,6498,NA,"Male","White","Not Hispanic or Latino","English","Lab","PA","radial-laminar-8dps-05-10-15-20-pct-coh","radial-laminar-2dps-05-10-15-20-pct-coh","2 deg/s test with 5, 10, 15, 20% coherence levels","2-8",21.864476386037
"105",1,2014-10-13,3,9,"linear",0,0.1,"L",0.98445,"FALSE",0.1,2,8,6498,NA,"Male","White","Not Hispanic or Latino","English","Lab","PA","radial-laminar-8dps-05-10-15-20-pct-coh","radial-laminar-2dps-05-10-15-20-pct-coh","2 deg/s test with 5, 10, 15, 20% coherence levels","2-8",21.864476386037
"106",1,2014-10-13,3,15,"linear",0.1,0,"L",2.2855,"TRUE",0.1,2,8,6498,NA,"Male","White","Not Hispanic or Latino","English","Lab","PA","radial-laminar-8dps-05-10-15-20-pct-coh","radial-laminar-2dps-05-10-15-20-pct-coh","2 deg/s test with 5, 10, 15, 20% coherence levels","2-8",21.864476386037
"107",1,2014-10-13,4,5,"linear",0,0.1,"R",3.4863,"TRUE",0.1,2,8,6498,NA,"Male","White","Not Hispanic or Latino","English","Lab","PA","radial-laminar-8dps-05-10-15-20-pct-coh","radial-laminar-2dps-05-10-15-20-pct-coh","2 deg/s test with 5, 10, 15, 20% coherence levels","2-8",21.864476386037
"108",1,2014-10-13,4,15,"linear",0.1,0,"L",1.2253,"TRUE",0.1,2,8,6498,NA,"Male","White","Not Hispanic or Latino","English","Lab","PA","radial-laminar-8dps-05-10-15-20-pct-coh","radial-laminar-2dps-05-10-15-20-pct-coh","2 deg/s test with 5, 10, 15, 20% coherence levels","2-8",21.864476386037
"109",1,2014-10-13,5,3,"linear",0,0.1,"R",1.9183,"TRUE",0.1,2,8,6498,NA,"Male","White","Not Hispanic or Latino","English","Lab","PA","radial-laminar-8dps-05-10-15-20-pct-coh","radial-laminar-2dps-05-10-15-20-pct-coh","2 deg/s test with 5, 10, 15, 20% coherence levels","2-8",21.864476386037
"110",1,2014-10-13,5,14,"linear",0.1,0,"R",2.0019,"FALSE",0.1,2,8,6498,NA,"Male","White","Not Hispanic or Latino","English","Lab","PA","radial-laminar-8dps-05-10-15-20-pct-coh","radial-laminar-2dps-05-10-15-20-pct-coh","2 deg/s test with 5, 10, 15, 20% coherence levels","2-8",21.864476386037
"111",1,2014-10-13,1,2,"radial",0.1,0,"R",1.5851,"FALSE",0.1,2,8,6498,NA,"Male","White","Not Hispanic or Latino","English","Lab","PA","radial-laminar-8dps-05-10-15-20-pct-coh","radial-laminar-2dps-05-10-15-20-pct-coh","2 deg/s test with 5, 10, 15, 20% coherence levels","2-8",21.864476386037
"112",1,2014-10-13,1,9,"radial",0,0.1,"R",3.7867,"TRUE",0.1,2,8,6498,NA,"Male","White","Not Hispanic or Latino","English","Lab","PA","radial-laminar-8dps-05-10-15-20-pct-coh","radial-laminar-2dps-05-10-15-20-pct-coh","2 deg/s test with 5, 10, 15, 20% coherence levels","2-8",21.864476386037
"113",1,2014-10-13,2,4,"radial",0.1,0,"L",1.3445,"TRUE",0.1,2,8,6498,NA,"Male","White","Not Hispanic or Latino","English","Lab","PA","radial-laminar-8dps-05-10-15-20-pct-coh","radial-laminar-2dps-05-10-15-20-pct-coh","2 deg/s test with 5, 10, 15, 20% coherence levels","2-8",21.864476386037
"114",1,2014-10-13,2,9,"radial",0,0.1,"R",2.1871,"TRUE",0.1,2,8,6498,NA,"Male","White","Not Hispanic or Latino","English","Lab","PA","radial-laminar-8dps-05-10-15-20-pct-coh","radial-laminar-2dps-05-10-15-20-pct-coh","2 deg/s test with 5, 10, 15, 20% coherence levels","2-8",21.864476386037
"115",1,2014-10-13,3,2,"radial",0.1,0,"L",2.1386,"TRUE",0.1,2,8,6498,NA,"Male","White","Not Hispanic or Latino","English","Lab","PA","radial-laminar-8dps-05-10-15-20-pct-coh","radial-laminar-2dps-05-10-15-20-pct-coh","2 deg/s test with 5, 10, 15, 20% coherence levels","2-8",21.864476386037
"116",1,2014-10-13,3,6,"radial",0,0.1,"R",1.3552,"TRUE",0.1,2,8,6498,NA,"Male","White","Not Hispanic or Latino","English","Lab","PA","radial-laminar-8dps-05-10-15-20-pct-coh","radial-laminar-2dps-05-10-15-20-pct-coh","2 deg/s test with 5, 10, 15, 20% coherence levels","2-8",21.864476386037
"117",1,2014-10-13,4,3,"radial",0.1,0,"L",1.8521,"TRUE",0.1,2,8,6498,NA,"Male","White","Not Hispanic or Latino","English","Lab","PA","radial-laminar-8dps-05-10-15-20-pct-coh","radial-laminar-2dps-05-10-15-20-pct-coh","2 deg/s test with 5, 10, 15, 20% coherence levels","2-8",21.864476386037
"118",1,2014-10-13,4,9,"radial",0,0.1,"L",1.1847,"FALSE",0.1,2,8,6498,NA,"Male","White","Not Hispanic or Latino","English","Lab","PA","radial-laminar-8dps-05-10-15-20-pct-coh","radial-laminar-2dps-05-10-15-20-pct-coh","2 deg/s test with 5, 10, 15, 20% coherence levels","2-8",21.864476386037
"119",1,2014-10-13,5,4,"radial",0.1,0,"L",0.95109,"TRUE",0.1,2,8,6498,NA,"Male","White","Not Hispanic or Latino","English","Lab","PA","radial-laminar-8dps-05-10-15-20-pct-coh","radial-laminar-2dps-05-10-15-20-pct-coh","2 deg/s test with 5, 10, 15, 20% coherence levels","2-8",21.864476386037
"120",1,2014-10-13,5,12,"radial",0,0.1,"R",1.4177,"TRUE",0.1,2,8,6498,NA,"Male","White","Not Hispanic or Latino","English","Lab","PA","radial-laminar-8dps-05-10-15-20-pct-coh","radial-laminar-2dps-05-10-15-20-pct-coh","2 deg/s test with 5, 10, 15, 20% coherence levels","2-8",21.864476386037
"121",1,2014-10-13,1,8,"linear",0.15,0,"L",1.0679,"TRUE",0.15,2,8,6498,NA,"Male","White","Not Hispanic or Latino","English","Lab","PA","radial-laminar-8dps-05-10-15-20-pct-coh","radial-laminar-2dps-05-10-15-20-pct-coh","2 deg/s test with 5, 10, 15, 20% coherence levels","2-8",21.864476386037
"122",1,2014-10-13,1,13,"linear",0,0.15,"L",1.2845,"FALSE",0.15,2,8,6498,NA,"Male","White","Not Hispanic or Latino","English","Lab","PA","radial-laminar-8dps-05-10-15-20-pct-coh","radial-laminar-2dps-05-10-15-20-pct-coh","2 deg/s test with 5, 10, 15, 20% coherence levels","2-8",21.864476386037
"123",1,2014-10-13,2,6,"linear",0.15,0,"L",1.001,"TRUE",0.15,2,8,6498,NA,"Male","White","Not Hispanic or Latino","English","Lab","PA","radial-laminar-8dps-05-10-15-20-pct-coh","radial-laminar-2dps-05-10-15-20-pct-coh","2 deg/s test with 5, 10, 15, 20% coherence levels","2-8",21.864476386037
"124",1,2014-10-13,2,12,"linear",0,0.15,"R",1.5678,"TRUE",0.15,2,8,6498,NA,"Male","White","Not Hispanic or Latino","English","Lab","PA","radial-laminar-8dps-05-10-15-20-pct-coh","radial-laminar-2dps-05-10-15-20-pct-coh","2 deg/s test with 5, 10, 15, 20% coherence levels","2-8",21.864476386037
"125",1,2014-10-13,3,11,"linear",0.15,0,"L",1.301,"TRUE",0.15,2,8,6498,NA,"Male","White","Not Hispanic or Latino","English","Lab","PA","radial-laminar-8dps-05-10-15-20-pct-coh","radial-laminar-2dps-05-10-15-20-pct-coh","2 deg/s test with 5, 10, 15, 20% coherence levels","2-8",21.864476386037
"126",1,2014-10-13,3,13,"linear",0,0.15,"L",1.3847,"FALSE",0.15,2,8,6498,NA,"Male","White","Not Hispanic or Latino","English","Lab","PA","radial-laminar-8dps-05-10-15-20-pct-coh","radial-laminar-2dps-05-10-15-20-pct-coh","2 deg/s test with 5, 10, 15, 20% coherence levels","2-8",21.864476386037
"127",1,2014-10-13,4,8,"linear",0.15,0,"L",0.9343,"TRUE",0.15,2,8,6498,NA,"Male","White","Not Hispanic or Latino","English","Lab","PA","radial-laminar-8dps-05-10-15-20-pct-coh","radial-laminar-2dps-05-10-15-20-pct-coh","2 deg/s test with 5, 10, 15, 20% coherence levels","2-8",21.864476386037
"128",1,2014-10-13,4,13,"linear",0,0.15,"L",1.368,"FALSE",0.15,2,8,6498,NA,"Male","White","Not Hispanic or Latino","English","Lab","PA","radial-laminar-8dps-05-10-15-20-pct-coh","radial-laminar-2dps-05-10-15-20-pct-coh","2 deg/s test with 5, 10, 15, 20% coherence levels","2-8",21.864476386037
"129",1,2014-10-13,5,5,"linear",0.15,0,"L",0.98398,"TRUE",0.15,2,8,6498,NA,"Male","White","Not Hispanic or Latino","English","Lab","PA","radial-laminar-8dps-05-10-15-20-pct-coh","radial-laminar-2dps-05-10-15-20-pct-coh","2 deg/s test with 5, 10, 15, 20% coherence levels","2-8",21.864476386037
"130",1,2014-10-13,5,10,"linear",0,0.15,"R",1.8683,"TRUE",0.15,2,8,6498,NA,"Male","White","Not Hispanic or Latino","English","Lab","PA","radial-laminar-8dps-05-10-15-20-pct-coh","radial-laminar-2dps-05-10-15-20-pct-coh","2 deg/s test with 5, 10, 15, 20% coherence levels","2-8",21.864476386037
"131",1,2014-10-13,1,1,"radial",0.15,0,"L",3.402,"TRUE",0.15,2,8,6498,NA,"Male","White","Not Hispanic or Latino","English","Lab","PA","radial-laminar-8dps-05-10-15-20-pct-coh","radial-laminar-2dps-05-10-15-20-pct-coh","2 deg/s test with 5, 10, 15, 20% coherence levels","2-8",21.864476386037
"132",1,2014-10-13,1,3,"radial",0,0.15,"R",2.286,"TRUE",0.15,2,8,6498,NA,"Male","White","Not Hispanic or Latino","English","Lab","PA","radial-laminar-8dps-05-10-15-20-pct-coh","radial-laminar-2dps-05-10-15-20-pct-coh","2 deg/s test with 5, 10, 15, 20% coherence levels","2-8",21.864476386037
"133",1,2014-10-13,2,2,"radial",0.15,0,"L",1.2012,"TRUE",0.15,2,8,6498,NA,"Male","White","Not Hispanic or Latino","English","Lab","PA","radial-laminar-8dps-05-10-15-20-pct-coh","radial-laminar-2dps-05-10-15-20-pct-coh","2 deg/s test with 5, 10, 15, 20% coherence levels","2-8",21.864476386037
"134",1,2014-10-13,2,5,"radial",0,0.15,"R",1.4514,"TRUE",0.15,2,8,6498,NA,"Male","White","Not Hispanic or Latino","English","Lab","PA","radial-laminar-8dps-05-10-15-20-pct-coh","radial-laminar-2dps-05-10-15-20-pct-coh","2 deg/s test with 5, 10, 15, 20% coherence levels","2-8",21.864476386037
"135",1,2014-10-13,3,1,"radial",0.15,0,"L",1.8348,"TRUE",0.15,2,8,6498,NA,"Male","White","Not Hispanic or Latino","English","Lab","PA","radial-laminar-8dps-05-10-15-20-pct-coh","radial-laminar-2dps-05-10-15-20-pct-coh","2 deg/s test with 5, 10, 15, 20% coherence levels","2-8",21.864476386037
"136",1,2014-10-13,3,3,"radial",0,0.15,"R",1.001,"TRUE",0.15,2,8,6498,NA,"Male","White","Not Hispanic or Latino","English","Lab","PA","radial-laminar-8dps-05-10-15-20-pct-coh","radial-laminar-2dps-05-10-15-20-pct-coh","2 deg/s test with 5, 10, 15, 20% coherence levels","2-8",21.864476386037
"137",1,2014-10-13,4,1,"radial",0.15,0,"L",1.241,"TRUE",0.15,2,8,6498,NA,"Male","White","Not Hispanic or Latino","English","Lab","PA","radial-laminar-8dps-05-10-15-20-pct-coh","radial-laminar-2dps-05-10-15-20-pct-coh","2 deg/s test with 5, 10, 15, 20% coherence levels","2-8",21.864476386037
"138",1,2014-10-13,4,4,"radial",0,0.15,"R",2.4067,"TRUE",0.15,2,8,6498,NA,"Male","White","Not Hispanic or Latino","English","Lab","PA","radial-laminar-8dps-05-10-15-20-pct-coh","radial-laminar-2dps-05-10-15-20-pct-coh","2 deg/s test with 5, 10, 15, 20% coherence levels","2-8",21.864476386037
"139",1,2014-10-13,5,2,"radial",0.15,0,"L",1.0844,"TRUE",0.15,2,8,6498,NA,"Male","White","Not Hispanic or Latino","English","Lab","PA","radial-laminar-8dps-05-10-15-20-pct-coh","radial-laminar-2dps-05-10-15-20-pct-coh","2 deg/s test with 5, 10, 15, 20% coherence levels","2-8",21.864476386037
"140",1,2014-10-13,5,6,"radial",0,0.15,"L",1.9183,"FALSE",0.15,2,8,6498,NA,"Male","White","Not Hispanic or Latino","English","Lab","PA","radial-laminar-8dps-05-10-15-20-pct-coh","radial-laminar-2dps-05-10-15-20-pct-coh","2 deg/s test with 5, 10, 15, 20% coherence levels","2-8",21.864476386037
"141",1,2014-10-13,1,6,"linear",0.2,0,"L",1.0343,"TRUE",0.2,2,8,6498,NA,"Male","White","Not Hispanic or Latino","English","Lab","PA","radial-laminar-8dps-05-10-15-20-pct-coh","radial-laminar-2dps-05-10-15-20-pct-coh","2 deg/s test with 5, 10, 15, 20% coherence levels","2-8",21.864476386037
"142",1,2014-10-13,1,14,"linear",0,0.2,"R",0.90121,"TRUE",0.2,2,8,6498,NA,"Male","White","Not Hispanic or Latino","English","Lab","PA","radial-laminar-8dps-05-10-15-20-pct-coh","radial-laminar-2dps-05-10-15-20-pct-coh","2 deg/s test with 5, 10, 15, 20% coherence levels","2-8",21.864476386037
"143",1,2014-10-13,2,1,"linear",0.2,0,"L",0.95093,"TRUE",0.2,2,8,6498,NA,"Male","White","Not Hispanic or Latino","English","Lab","PA","radial-laminar-8dps-05-10-15-20-pct-coh","radial-laminar-2dps-05-10-15-20-pct-coh","2 deg/s test with 5, 10, 15, 20% coherence levels","2-8",21.864476386037
"144",1,2014-10-13,2,13,"linear",0,0.2,"R",1.1344,"TRUE",0.2,2,8,6498,NA,"Male","White","Not Hispanic or Latino","English","Lab","PA","radial-laminar-8dps-05-10-15-20-pct-coh","radial-laminar-2dps-05-10-15-20-pct-coh","2 deg/s test with 5, 10, 15, 20% coherence levels","2-8",21.864476386037
"145",1,2014-10-13,3,8,"linear",0.2,0,"L",0.88424,"TRUE",0.2,2,8,6498,NA,"Male","White","Not Hispanic or Latino","English","Lab","PA","radial-laminar-8dps-05-10-15-20-pct-coh","radial-laminar-2dps-05-10-15-20-pct-coh","2 deg/s test with 5, 10, 15, 20% coherence levels","2-8",21.864476386037
"146",1,2014-10-13,3,14,"linear",0,0.2,"R",1.3513,"TRUE",0.2,2,8,6498,NA,"Male","White","Not Hispanic or Latino","English","Lab","PA","radial-laminar-8dps-05-10-15-20-pct-coh","radial-laminar-2dps-05-10-15-20-pct-coh","2 deg/s test with 5, 10, 15, 20% coherence levels","2-8",21.864476386037
"147",1,2014-10-13,4,2,"linear",0.2,0,"L",0.96766,"TRUE",0.2,2,8,6498,NA,"Male","White","Not Hispanic or Latino","English","Lab","PA","radial-laminar-8dps-05-10-15-20-pct-coh","radial-laminar-2dps-05-10-15-20-pct-coh","2 deg/s test with 5, 10, 15, 20% coherence levels","2-8",21.864476386037
"148",1,2014-10-13,4,14,"linear",0,0.2,"R",1.2012,"TRUE",0.2,2,8,6498,NA,"Male","White","Not Hispanic or Latino","English","Lab","PA","radial-laminar-8dps-05-10-15-20-pct-coh","radial-laminar-2dps-05-10-15-20-pct-coh","2 deg/s test with 5, 10, 15, 20% coherence levels","2-8",21.864476386037
"149",1,2014-10-13,5,1,"linear",0.2,0,"L",0.83767,"TRUE",0.2,2,8,6498,NA,"Male","White","Not Hispanic or Latino","English","Lab","PA","radial-laminar-8dps-05-10-15-20-pct-coh","radial-laminar-2dps-05-10-15-20-pct-coh","2 deg/s test with 5, 10, 15, 20% coherence levels","2-8",21.864476386037
"150",1,2014-10-13,5,11,"linear",0,0.2,"R",1.0009,"TRUE",0.2,2,8,6498,NA,"Male","White","Not Hispanic or Latino","English","Lab","PA","radial-laminar-8dps-05-10-15-20-pct-coh","radial-laminar-2dps-05-10-15-20-pct-coh","2 deg/s test with 5, 10, 15, 20% coherence levels","2-8",21.864476386037
"151",1,2014-10-13,1,4,"radial",0,0.2,"L",2.8856,"FALSE",0.2,2,8,6498,NA,"Male","White","Not Hispanic or Latino","English","Lab","PA","radial-laminar-8dps-05-10-15-20-pct-coh","radial-laminar-2dps-05-10-15-20-pct-coh","2 deg/s test with 5, 10, 15, 20% coherence levels","2-8",21.864476386037
"152",1,2014-10-13,1,12,"radial",0.2,0,"L",0.9842,"TRUE",0.2,2,8,6498,NA,"Male","White","Not Hispanic or Latino","English","Lab","PA","radial-laminar-8dps-05-10-15-20-pct-coh","radial-laminar-2dps-05-10-15-20-pct-coh","2 deg/s test with 5, 10, 15, 20% coherence levels","2-8",21.864476386037
"153",1,2014-10-13,2,7,"radial",0,0.2,"R",1.1009,"TRUE",0.2,2,8,6498,NA,"Male","White","Not Hispanic or Latino","English","Lab","PA","radial-laminar-8dps-05-10-15-20-pct-coh","radial-laminar-2dps-05-10-15-20-pct-coh","2 deg/s test with 5, 10, 15, 20% coherence levels","2-8",21.864476386037
"154",1,2014-10-13,2,15,"radial",0.2,0,"L",0.90094,"TRUE",0.2,2,8,6498,NA,"Male","White","Not Hispanic or Latino","English","Lab","PA","radial-laminar-8dps-05-10-15-20-pct-coh","radial-laminar-2dps-05-10-15-20-pct-coh","2 deg/s test with 5, 10, 15, 20% coherence levels","2-8",21.864476386037
"155",1,2014-10-13,3,4,"radial",0,0.2,"R",1.0356,"TRUE",0.2,2,8,6498,NA,"Male","White","Not Hispanic or Latino","English","Lab","PA","radial-laminar-8dps-05-10-15-20-pct-coh","radial-laminar-2dps-05-10-15-20-pct-coh","2 deg/s test with 5, 10, 15, 20% coherence levels","2-8",21.864476386037
"156",1,2014-10-13,3,10,"radial",0.2,0,"L",1.1518,"TRUE",0.2,2,8,6498,NA,"Male","White","Not Hispanic or Latino","English","Lab","PA","radial-laminar-8dps-05-10-15-20-pct-coh","radial-laminar-2dps-05-10-15-20-pct-coh","2 deg/s test with 5, 10, 15, 20% coherence levels","2-8",21.864476386037
"157",1,2014-10-13,4,6,"radial",0,0.2,"R",0.86781,"TRUE",0.2,2,8,6498,NA,"Male","White","Not Hispanic or Latino","English","Lab","PA","radial-laminar-8dps-05-10-15-20-pct-coh","radial-laminar-2dps-05-10-15-20-pct-coh","2 deg/s test with 5, 10, 15, 20% coherence levels","2-8",21.864476386037
"158",1,2014-10-13,4,11,"radial",0.2,0,"L",1.0719,"TRUE",0.2,2,8,6498,NA,"Male","White","Not Hispanic or Latino","English","Lab","PA","radial-laminar-8dps-05-10-15-20-pct-coh","radial-laminar-2dps-05-10-15-20-pct-coh","2 deg/s test with 5, 10, 15, 20% coherence levels","2-8",21.864476386037
"159",1,2014-10-13,5,7,"radial",0,0.2,"R",1.0847,"TRUE",0.2,2,8,6498,NA,"Male","White","Not Hispanic or Latino","English","Lab","PA","radial-laminar-8dps-05-10-15-20-pct-coh","radial-laminar-2dps-05-10-15-20-pct-coh","2 deg/s test with 5, 10, 15, 20% coherence levels","2-8",21.864476386037
"160",1,2014-10-13,5,15,"radial",0.2,0,"L",1.468,"TRUE",0.2,2,8,6498,NA,"Male","White","Not Hispanic or Latino","English","Lab","PA","radial-laminar-8dps-05-10-15-20-pct-coh","radial-laminar-2dps-05-10-15-20-pct-coh","2 deg/s test with 5, 10, 15, 20% coherence levels","2-8",21.864476386037
"161",1,2014-10-28,1,1,"linear",0.1,0,"R",2.6154,"FALSE",0.1,1,2,6537,NA,"Male","White","Not Hispanic or Latino","English","Lab","PA","radial-laminar-2dps-05-10-15-20-pct-coh","radial-laminar-8dps-05-10-15-20-pct-coh","8 deg/s test with 5, 10, 15, 20% coherence levels","2-8-2-8",21.9055441478439
"162",1,2014-10-28,1,2,"linear",0.2,0,"L",1.7685,"TRUE",0.2,1,2,6537,NA,"Male","White","Not Hispanic or Latino","English","Lab","PA","radial-laminar-2dps-05-10-15-20-pct-coh","radial-laminar-8dps-05-10-15-20-pct-coh","8 deg/s test with 5, 10, 15, 20% coherence levels","2-8-2-8",21.9055441478439
"163",1,2014-10-28,1,3,"radial",0.2,0,"L",0.98448,"TRUE",0.2,1,2,6537,NA,"Male","White","Not Hispanic or Latino","English","Lab","PA","radial-laminar-2dps-05-10-15-20-pct-coh","radial-laminar-8dps-05-10-15-20-pct-coh","8 deg/s test with 5, 10, 15, 20% coherence levels","2-8-2-8",21.9055441478439
"164",1,2014-10-28,1,4,"linear",0.05,0,"L",3.286,"TRUE",0.05,1,2,6537,NA,"Male","White","Not Hispanic or Latino","English","Lab","PA","radial-laminar-2dps-05-10-15-20-pct-coh","radial-laminar-8dps-05-10-15-20-pct-coh","8 deg/s test with 5, 10, 15, 20% coherence levels","2-8-2-8",21.9055441478439
"165",1,2014-10-28,1,5,"linear",0,0.2,"L",1.8017,"FALSE",0.2,1,2,6537,NA,"Male","White","Not Hispanic or Latino","English","Lab","PA","radial-laminar-2dps-05-10-15-20-pct-coh","radial-laminar-8dps-05-10-15-20-pct-coh","8 deg/s test with 5, 10, 15, 20% coherence levels","2-8-2-8",21.9055441478439
"166",1,2014-10-28,1,6,"radial",0,0.05,"R",3.6066,"TRUE",0.05,1,2,6537,NA,"Male","White","Not Hispanic or Latino","English","Lab","PA","radial-laminar-2dps-05-10-15-20-pct-coh","radial-laminar-8dps-05-10-15-20-pct-coh","8 deg/s test with 5, 10, 15, 20% coherence levels","2-8-2-8",21.9055441478439
"167",1,2014-10-28,1,7,"radial",0,0.2,"R",0.85086,"TRUE",0.2,1,2,6537,NA,"Male","White","Not Hispanic or Latino","English","Lab","PA","radial-laminar-2dps-05-10-15-20-pct-coh","radial-laminar-8dps-05-10-15-20-pct-coh","8 deg/s test with 5, 10, 15, 20% coherence levels","2-8-2-8",21.9055441478439
"168",1,2014-10-28,1,8,"linear",0,0.15,"R",0.96781,"TRUE",0.15,1,2,6537,NA,"Male","White","Not Hispanic or Latino","English","Lab","PA","radial-laminar-2dps-05-10-15-20-pct-coh","radial-laminar-8dps-05-10-15-20-pct-coh","8 deg/s test with 5, 10, 15, 20% coherence levels","2-8-2-8",21.9055441478439
"169",1,2014-10-28,1,9,"radial",0,0.15,"R",1.9354,"TRUE",0.15,1,2,6537,NA,"Male","White","Not Hispanic or Latino","English","Lab","PA","radial-laminar-2dps-05-10-15-20-pct-coh","radial-laminar-8dps-05-10-15-20-pct-coh","8 deg/s test with 5, 10, 15, 20% coherence levels","2-8-2-8",21.9055441478439
"170",1,2014-10-28,1,10,"linear",0,0.1,"R",1.8356,"TRUE",0.1,1,2,6537,NA,"Male","White","Not Hispanic or Latino","English","Lab","PA","radial-laminar-2dps-05-10-15-20-pct-coh","radial-laminar-8dps-05-10-15-20-pct-coh","8 deg/s test with 5, 10, 15, 20% coherence levels","2-8-2-8",21.9055441478439
"171",1,2014-10-28,1,11,"radial",0.05,0,"L",3.3196,"TRUE",0.05,1,2,6537,NA,"Male","White","Not Hispanic or Latino","English","Lab","PA","radial-laminar-2dps-05-10-15-20-pct-coh","radial-laminar-8dps-05-10-15-20-pct-coh","8 deg/s test with 5, 10, 15, 20% coherence levels","2-8-2-8",21.9055441478439
"172",1,2014-10-28,1,12,"linear",0,0.05,"L",1.8183,"FALSE",0.05,1,2,6537,NA,"Male","White","Not Hispanic or Latino","English","Lab","PA","radial-laminar-2dps-05-10-15-20-pct-coh","radial-laminar-8dps-05-10-15-20-pct-coh","8 deg/s test with 5, 10, 15, 20% coherence levels","2-8-2-8",21.9055441478439
"173",1,2014-10-28,1,13,"radial",0.15,0,"L",1.6016,"TRUE",0.15,1,2,6537,NA,"Male","White","Not Hispanic or Latino","English","Lab","PA","radial-laminar-2dps-05-10-15-20-pct-coh","radial-laminar-8dps-05-10-15-20-pct-coh","8 deg/s test with 5, 10, 15, 20% coherence levels","2-8-2-8",21.9055441478439
"174",1,2014-10-28,1,14,"linear",0.15,0,"L",2.2872,"TRUE",0.15,1,2,6537,NA,"Male","White","Not Hispanic or Latino","English","Lab","PA","radial-laminar-2dps-05-10-15-20-pct-coh","radial-laminar-8dps-05-10-15-20-pct-coh","8 deg/s test with 5, 10, 15, 20% coherence levels","2-8-2-8",21.9055441478439
"175",1,2014-10-28,1,15,"radial",0,0.1,"L",1.4352,"FALSE",0.1,1,2,6537,NA,"Male","White","Not Hispanic or Latino","English","Lab","PA","radial-laminar-2dps-05-10-15-20-pct-coh","radial-laminar-8dps-05-10-15-20-pct-coh","8 deg/s test with 5, 10, 15, 20% coherence levels","2-8-2-8",21.9055441478439
"176",1,2014-10-28,1,16,"radial",0.1,0,"L",2.7359,"TRUE",0.1,1,2,6537,NA,"Male","White","Not Hispanic or Latino","English","Lab","PA","radial-laminar-2dps-05-10-15-20-pct-coh","radial-laminar-8dps-05-10-15-20-pct-coh","8 deg/s test with 5, 10, 15, 20% coherence levels","2-8-2-8",21.9055441478439
"177",1,2014-10-28,2,1,"radial",0.2,0,"L",1.6012,"TRUE",0.2,1,2,6537,NA,"Male","White","Not Hispanic or Latino","English","Lab","PA","radial-laminar-2dps-05-10-15-20-pct-coh","radial-laminar-8dps-05-10-15-20-pct-coh","8 deg/s test with 5, 10, 15, 20% coherence levels","2-8-2-8",21.9055441478439
"178",1,2014-10-28,2,2,"linear",0.1,0,"L",2.0765,"TRUE",0.1,1,2,6537,NA,"Male","White","Not Hispanic or Latino","English","Lab","PA","radial-laminar-2dps-05-10-15-20-pct-coh","radial-laminar-8dps-05-10-15-20-pct-coh","8 deg/s test with 5, 10, 15, 20% coherence levels","2-8-2-8",21.9055441478439
"179",1,2014-10-28,2,3,"linear",0.2,0,"L",1.4865,"TRUE",0.2,1,2,6537,NA,"Male","White","Not Hispanic or Latino","English","Lab","PA","radial-laminar-2dps-05-10-15-20-pct-coh","radial-laminar-8dps-05-10-15-20-pct-coh","8 deg/s test with 5, 10, 15, 20% coherence levels","2-8-2-8",21.9055441478439
"180",1,2014-10-28,2,4,"linear",0.05,0,"L",1.7847,"TRUE",0.05,1,2,6537,NA,"Male","White","Not Hispanic or Latino","English","Lab","PA","radial-laminar-2dps-05-10-15-20-pct-coh","radial-laminar-8dps-05-10-15-20-pct-coh","8 deg/s test with 5, 10, 15, 20% coherence levels","2-8-2-8",21.9055441478439
"181",1,2014-10-28,2,5,"linear",0,0.2,"R",1.1513,"TRUE",0.2,1,2,6537,NA,"Male","White","Not Hispanic or Latino","English","Lab","PA","radial-laminar-2dps-05-10-15-20-pct-coh","radial-laminar-8dps-05-10-15-20-pct-coh","8 deg/s test with 5, 10, 15, 20% coherence levels","2-8-2-8",21.9055441478439
"182",1,2014-10-28,2,6,"radial",0,0.05,"L",2.0548,"FALSE",0.05,1,2,6537,NA,"Male","White","Not Hispanic or Latino","English","Lab","PA","radial-laminar-2dps-05-10-15-20-pct-coh","radial-laminar-8dps-05-10-15-20-pct-coh","8 deg/s test with 5, 10, 15, 20% coherence levels","2-8-2-8",21.9055441478439
"183",1,2014-10-28,2,7,"radial",0,0.2,"R",1.1178,"TRUE",0.2,1,2,6537,NA,"Male","White","Not Hispanic or Latino","English","Lab","PA","radial-laminar-2dps-05-10-15-20-pct-coh","radial-laminar-8dps-05-10-15-20-pct-coh","8 deg/s test with 5, 10, 15, 20% coherence levels","2-8-2-8",21.9055441478439
"184",1,2014-10-28,2,8,"linear",0,0.15,"R",1.2384,"TRUE",0.15,1,2,6537,NA,"Male","White","Not Hispanic or Latino","English","Lab","PA","radial-laminar-2dps-05-10-15-20-pct-coh","radial-laminar-8dps-05-10-15-20-pct-coh","8 deg/s test with 5, 10, 15, 20% coherence levels","2-8-2-8",21.9055441478439
"185",1,2014-10-28,2,9,"linear",0,0.1,"L",1.4512,"FALSE",0.1,1,2,6537,NA,"Male","White","Not Hispanic or Latino","English","Lab","PA","radial-laminar-2dps-05-10-15-20-pct-coh","radial-laminar-8dps-05-10-15-20-pct-coh","8 deg/s test with 5, 10, 15, 20% coherence levels","2-8-2-8",21.9055441478439
"186",1,2014-10-28,2,10,"radial",0,0.15,"R",1.0679,"TRUE",0.15,1,2,6537,NA,"Male","White","Not Hispanic or Latino","English","Lab","PA","radial-laminar-2dps-05-10-15-20-pct-coh","radial-laminar-8dps-05-10-15-20-pct-coh","8 deg/s test with 5, 10, 15, 20% coherence levels","2-8-2-8",21.9055441478439
"187",1,2014-10-28,2,11,"radial",0.05,0,"R",2.669,"FALSE",0.05,1,2,6537,NA,"Male","White","Not Hispanic or Latino","English","Lab","PA","radial-laminar-2dps-05-10-15-20-pct-coh","radial-laminar-8dps-05-10-15-20-pct-coh","8 deg/s test with 5, 10, 15, 20% coherence levels","2-8-2-8",21.9055441478439
"188",1,2014-10-28,2,12,"radial",0.15,0,"L",1.7683,"TRUE",0.15,1,2,6537,NA,"Male","White","Not Hispanic or Latino","English","Lab","PA","radial-laminar-2dps-05-10-15-20-pct-coh","radial-laminar-8dps-05-10-15-20-pct-coh","8 deg/s test with 5, 10, 15, 20% coherence levels","2-8-2-8",21.9055441478439
"189",1,2014-10-28,2,13,"linear",0,0.05,"R",2.3185,"TRUE",0.05,1,2,6537,NA,"Male","White","Not Hispanic or Latino","English","Lab","PA","radial-laminar-2dps-05-10-15-20-pct-coh","radial-laminar-8dps-05-10-15-20-pct-coh","8 deg/s test with 5, 10, 15, 20% coherence levels","2-8-2-8",21.9055441478439
"190",1,2014-10-28,2,14,"radial",0,0.1,"R",1.9682,"TRUE",0.1,1,2,6537,NA,"Male","White","Not Hispanic or Latino","English","Lab","PA","radial-laminar-2dps-05-10-15-20-pct-coh","radial-laminar-8dps-05-10-15-20-pct-coh","8 deg/s test with 5, 10, 15, 20% coherence levels","2-8-2-8",21.9055441478439
"191",1,2014-10-28,2,15,"radial",0.1,0,"R",1.9018,"FALSE",0.1,1,2,6537,NA,"Male","White","Not Hispanic or Latino","English","Lab","PA","radial-laminar-2dps-05-10-15-20-pct-coh","radial-laminar-8dps-05-10-15-20-pct-coh","8 deg/s test with 5, 10, 15, 20% coherence levels","2-8-2-8",21.9055441478439
"192",1,2014-10-28,2,16,"linear",0.15,0,"L",0.83439,"TRUE",0.15,1,2,6537,NA,"Male","White","Not Hispanic or Latino","English","Lab","PA","radial-laminar-2dps-05-10-15-20-pct-coh","radial-laminar-8dps-05-10-15-20-pct-coh","8 deg/s test with 5, 10, 15, 20% coherence levels","2-8-2-8",21.9055441478439
"193",1,2014-10-28,3,1,"radial",0.2,0,"L",1.8017,"TRUE",0.2,1,2,6537,NA,"Male","White","Not Hispanic or Latino","English","Lab","PA","radial-laminar-2dps-05-10-15-20-pct-coh","radial-laminar-8dps-05-10-15-20-pct-coh","8 deg/s test with 5, 10, 15, 20% coherence levels","2-8-2-8",21.9055441478439
"194",1,2014-10-28,3,2,"radial",0,0.05,"L",2.6356,"FALSE",0.05,1,2,6537,NA,"Male","White","Not Hispanic or Latino","English","Lab","PA","radial-laminar-2dps-05-10-15-20-pct-coh","radial-laminar-8dps-05-10-15-20-pct-coh","8 deg/s test with 5, 10, 15, 20% coherence levels","2-8-2-8",21.9055441478439
"195",1,2014-10-28,3,3,"radial",0,0.2,"R",1.2679,"TRUE",0.2,1,2,6537,NA,"Male","White","Not Hispanic or Latino","English","Lab","PA","radial-laminar-2dps-05-10-15-20-pct-coh","radial-laminar-8dps-05-10-15-20-pct-coh","8 deg/s test with 5, 10, 15, 20% coherence levels","2-8-2-8",21.9055441478439
"196",1,2014-10-28,3,4,"radial",0,0.15,"R",1.8519,"TRUE",0.15,1,2,6537,NA,"Male","White","Not Hispanic or Latino","English","Lab","PA","radial-laminar-2dps-05-10-15-20-pct-coh","radial-laminar-8dps-05-10-15-20-pct-coh","8 deg/s test with 5, 10, 15, 20% coherence levels","2-8-2-8",21.9055441478439
"197",1,2014-10-28,3,5,"linear",0.1,0,"L",1.2049,"TRUE",0.1,1,2,6537,NA,"Male","White","Not Hispanic or Latino","English","Lab","PA","radial-laminar-2dps-05-10-15-20-pct-coh","radial-laminar-8dps-05-10-15-20-pct-coh","8 deg/s test with 5, 10, 15, 20% coherence levels","2-8-2-8",21.9055441478439
"198",1,2014-10-28,3,6,"linear",0.2,0,"L",0.85104,"TRUE",0.2,1,2,6537,NA,"Male","White","Not Hispanic or Latino","English","Lab","PA","radial-laminar-2dps-05-10-15-20-pct-coh","radial-laminar-8dps-05-10-15-20-pct-coh","8 deg/s test with 5, 10, 15, 20% coherence levels","2-8-2-8",21.9055441478439
"199",1,2014-10-28,3,7,"linear",0.05,0,"R",2.1184,"FALSE",0.05,1,2,6537,NA,"Male","White","Not Hispanic or Latino","English","Lab","PA","radial-laminar-2dps-05-10-15-20-pct-coh","radial-laminar-8dps-05-10-15-20-pct-coh","8 deg/s test with 5, 10, 15, 20% coherence levels","2-8-2-8",21.9055441478439
"200",1,2014-10-28,3,8,"linear",0,0.2,"L",1.8351,"FALSE",0.2,1,2,6537,NA,"Male","White","Not Hispanic or Latino","English","Lab","PA","radial-laminar-2dps-05-10-15-20-pct-coh","radial-laminar-8dps-05-10-15-20-pct-coh","8 deg/s test with 5, 10, 15, 20% coherence levels","2-8-2-8",21.9055441478439
"201",1,2014-10-28,3,9,"linear",0,0.15,"R",1.1846,"TRUE",0.15,1,2,6537,NA,"Male","White","Not Hispanic or Latino","English","Lab","PA","radial-laminar-2dps-05-10-15-20-pct-coh","radial-laminar-8dps-05-10-15-20-pct-coh","8 deg/s test with 5, 10, 15, 20% coherence levels","2-8-2-8",21.9055441478439
"202",1,2014-10-28,3,10,"radial",0.05,0,"R",1.785,"FALSE",0.05,1,2,6537,NA,"Male","White","Not Hispanic or Latino","English","Lab","PA","radial-laminar-2dps-05-10-15-20-pct-coh","radial-laminar-8dps-05-10-15-20-pct-coh","8 deg/s test with 5, 10, 15, 20% coherence levels","2-8-2-8",21.9055441478439
"203",1,2014-10-28,3,11,"radial",0.15,0,"L",0.93435,"TRUE",0.15,1,2,6537,NA,"Male","White","Not Hispanic or Latino","English","Lab","PA","radial-laminar-2dps-05-10-15-20-pct-coh","radial-laminar-8dps-05-10-15-20-pct-coh","8 deg/s test with 5, 10, 15, 20% coherence levels","2-8-2-8",21.9055441478439
"204",1,2014-10-28,3,12,"radial",0,0.1,"R",2.3186,"TRUE",0.1,1,2,6537,NA,"Male","White","Not Hispanic or Latino","English","Lab","PA","radial-laminar-2dps-05-10-15-20-pct-coh","radial-laminar-8dps-05-10-15-20-pct-coh","8 deg/s test with 5, 10, 15, 20% coherence levels","2-8-2-8",21.9055441478439
"205",1,2014-10-28,3,13,"radial",0.1,0,"R",2.6191,"FALSE",0.1,1,2,6537,NA,"Male","White","Not Hispanic or Latino","English","Lab","PA","radial-laminar-2dps-05-10-15-20-pct-coh","radial-laminar-8dps-05-10-15-20-pct-coh","8 deg/s test with 5, 10, 15, 20% coherence levels","2-8-2-8",21.9055441478439
"206",1,2014-10-28,3,14,"linear",0,0.1,"L",1.8852,"FALSE",0.1,1,2,6537,NA,"Male","White","Not Hispanic or Latino","English","Lab","PA","radial-laminar-2dps-05-10-15-20-pct-coh","radial-laminar-8dps-05-10-15-20-pct-coh","8 deg/s test with 5, 10, 15, 20% coherence levels","2-8-2-8",21.9055441478439
"207",1,2014-10-28,3,15,"linear",0,0.05,"L",1.1513,"FALSE",0.05,1,2,6537,NA,"Male","White","Not Hispanic or Latino","English","Lab","PA","radial-laminar-2dps-05-10-15-20-pct-coh","radial-laminar-8dps-05-10-15-20-pct-coh","8 deg/s test with 5, 10, 15, 20% coherence levels","2-8-2-8",21.9055441478439
"208",1,2014-10-28,3,16,"linear",0.15,0,"L",1.062,"TRUE",0.15,1,2,6537,NA,"Male","White","Not Hispanic or Latino","English","Lab","PA","radial-laminar-2dps-05-10-15-20-pct-coh","radial-laminar-8dps-05-10-15-20-pct-coh","8 deg/s test with 5, 10, 15, 20% coherence levels","2-8-2-8",21.9055441478439
"209",1,2014-10-28,4,1,"linear",0.1,0,"L",0.98631,"TRUE",0.1,1,2,6537,NA,"Male","White","Not Hispanic or Latino","English","Lab","PA","radial-laminar-2dps-05-10-15-20-pct-coh","radial-laminar-8dps-05-10-15-20-pct-coh","8 deg/s test with 5, 10, 15, 20% coherence levels","2-8-2-8",21.9055441478439
"210",1,2014-10-28,4,2,"radial",0.2,0,"L",1.4514,"TRUE",0.2,1,2,6537,NA,"Male","White","Not Hispanic or Latino","English","Lab","PA","radial-laminar-2dps-05-10-15-20-pct-coh","radial-laminar-8dps-05-10-15-20-pct-coh","8 deg/s test with 5, 10, 15, 20% coherence levels","2-8-2-8",21.9055441478439
"211",1,2014-10-28,4,3,"radial",0,0.05,"R",2.6522,"TRUE",0.05,1,2,6537,NA,"Male","White","Not Hispanic or Latino","English","Lab","PA","radial-laminar-2dps-05-10-15-20-pct-coh","radial-laminar-8dps-05-10-15-20-pct-coh","8 deg/s test with 5, 10, 15, 20% coherence levels","2-8-2-8",21.9055441478439
"212",1,2014-10-28,4,4,"linear",0.2,0,"L",0.86755,"TRUE",0.2,1,2,6537,NA,"Male","White","Not Hispanic or Latino","English","Lab","PA","radial-laminar-2dps-05-10-15-20-pct-coh","radial-laminar-8dps-05-10-15-20-pct-coh","8 deg/s test with 5, 10, 15, 20% coherence levels","2-8-2-8",21.9055441478439
"213",1,2014-10-28,4,5,"linear",0.05,0,"R",1.7018,"FALSE",0.05,1,2,6537,NA,"Male","White","Not Hispanic or Latino","English","Lab","PA","radial-laminar-2dps-05-10-15-20-pct-coh","radial-laminar-8dps-05-10-15-20-pct-coh","8 deg/s test with 5, 10, 15, 20% coherence levels","2-8-2-8",21.9055441478439
"214",1,2014-10-28,4,6,"radial",0,0.2,"R",1.1846,"TRUE",0.2,1,2,6537,NA,"Male","White","Not Hispanic or Latino","English","Lab","PA","radial-laminar-2dps-05-10-15-20-pct-coh","radial-laminar-8dps-05-10-15-20-pct-coh","8 deg/s test with 5, 10, 15, 20% coherence levels","2-8-2-8",21.9055441478439
"215",1,2014-10-28,4,7,"radial",0,0.15,"L",0.96784,"FALSE",0.15,1,2,6537,NA,"Male","White","Not Hispanic or Latino","English","Lab","PA","radial-laminar-2dps-05-10-15-20-pct-coh","radial-laminar-8dps-05-10-15-20-pct-coh","8 deg/s test with 5, 10, 15, 20% coherence levels","2-8-2-8",21.9055441478439
"216",1,2014-10-28,4,8,"linear",0,0.2,"R",1.8853,"TRUE",0.2,1,2,6537,NA,"Male","White","Not Hispanic or Latino","English","Lab","PA","radial-laminar-2dps-05-10-15-20-pct-coh","radial-laminar-8dps-05-10-15-20-pct-coh","8 deg/s test with 5, 10, 15, 20% coherence levels","2-8-2-8",21.9055441478439
"217",1,2014-10-28,4,9,"linear",0,0.15,"L",1.1676,"FALSE",0.15,1,2,6537,NA,"Male","White","Not Hispanic or Latino","English","Lab","PA","radial-laminar-2dps-05-10-15-20-pct-coh","radial-laminar-8dps-05-10-15-20-pct-coh","8 deg/s test with 5, 10, 15, 20% coherence levels","2-8-2-8",21.9055441478439
"218",1,2014-10-28,4,10,"linear",0,0.1,"R",1.9349,"TRUE",0.1,1,2,6537,NA,"Male","White","Not Hispanic or Latino","English","Lab","PA","radial-laminar-2dps-05-10-15-20-pct-coh","radial-laminar-8dps-05-10-15-20-pct-coh","8 deg/s test with 5, 10, 15, 20% coherence levels","2-8-2-8",21.9055441478439
"219",1,2014-10-28,4,11,"radial",0.05,0,"L",1.8351,"TRUE",0.05,1,2,6537,NA,"Male","White","Not Hispanic or Latino","English","Lab","PA","radial-laminar-2dps-05-10-15-20-pct-coh","radial-laminar-8dps-05-10-15-20-pct-coh","8 deg/s test with 5, 10, 15, 20% coherence levels","2-8-2-8",21.9055441478439
"220",1,2014-10-28,4,12,"linear",0,0.05,"R",1.4016,"TRUE",0.05,1,2,6537,NA,"Male","White","Not Hispanic or Latino","English","Lab","PA","radial-laminar-2dps-05-10-15-20-pct-coh","radial-laminar-8dps-05-10-15-20-pct-coh","8 deg/s test with 5, 10, 15, 20% coherence levels","2-8-2-8",21.9055441478439
"221",1,2014-10-28,4,13,"radial",0.15,0,"L",1.7512,"TRUE",0.15,1,2,6537,NA,"Male","White","Not Hispanic or Latino","English","Lab","PA","radial-laminar-2dps-05-10-15-20-pct-coh","radial-laminar-8dps-05-10-15-20-pct-coh","8 deg/s test with 5, 10, 15, 20% coherence levels","2-8-2-8",21.9055441478439
"222",1,2014-10-28,4,14,"linear",0.15,0,"R",3.0691,"FALSE",0.15,1,2,6537,NA,"Male","White","Not Hispanic or Latino","English","Lab","PA","radial-laminar-2dps-05-10-15-20-pct-coh","radial-laminar-8dps-05-10-15-20-pct-coh","8 deg/s test with 5, 10, 15, 20% coherence levels","2-8-2-8",21.9055441478439
"223",1,2014-10-28,4,15,"radial",0,0.1,"R",2.1204,"TRUE",0.1,1,2,6537,NA,"Male","White","Not Hispanic or Latino","English","Lab","PA","radial-laminar-2dps-05-10-15-20-pct-coh","radial-laminar-8dps-05-10-15-20-pct-coh","8 deg/s test with 5, 10, 15, 20% coherence levels","2-8-2-8",21.9055441478439
"224",1,2014-10-28,4,16,"radial",0.1,0,"L",2.5859,"TRUE",0.1,1,2,6537,NA,"Male","White","Not Hispanic or Latino","English","Lab","PA","radial-laminar-2dps-05-10-15-20-pct-coh","radial-laminar-8dps-05-10-15-20-pct-coh","8 deg/s test with 5, 10, 15, 20% coherence levels","2-8-2-8",21.9055441478439
"225",1,2014-10-28,5,1,"radial",0.2,0,"L",0.81775,"TRUE",0.2,1,2,6537,NA,"Male","White","Not Hispanic or Latino","English","Lab","PA","radial-laminar-2dps-05-10-15-20-pct-coh","radial-laminar-8dps-05-10-15-20-pct-coh","8 deg/s test with 5, 10, 15, 20% coherence levels","2-8-2-8",21.9055441478439
"226",1,2014-10-28,5,2,"linear",0.1,0,"R",2.0029,"FALSE",0.1,1,2,6537,NA,"Male","White","Not Hispanic or Latino","English","Lab","PA","radial-laminar-2dps-05-10-15-20-pct-coh","radial-laminar-8dps-05-10-15-20-pct-coh","8 deg/s test with 5, 10, 15, 20% coherence levels","2-8-2-8",21.9055441478439
"227",1,2014-10-28,5,3,"linear",0.2,0,"L",0.90114,"TRUE",0.2,1,2,6537,NA,"Male","White","Not Hispanic or Latino","English","Lab","PA","radial-laminar-2dps-05-10-15-20-pct-coh","radial-laminar-8dps-05-10-15-20-pct-coh","8 deg/s test with 5, 10, 15, 20% coherence levels","2-8-2-8",21.9055441478439
"228",1,2014-10-28,5,4,"radial",0,0.05,"R",1.2349,"TRUE",0.05,1,2,6537,NA,"Male","White","Not Hispanic or Latino","English","Lab","PA","radial-laminar-2dps-05-10-15-20-pct-coh","radial-laminar-8dps-05-10-15-20-pct-coh","8 deg/s test with 5, 10, 15, 20% coherence levels","2-8-2-8",21.9055441478439
"229",1,2014-10-28,5,5,"radial",0,0.2,"R",1.4548,"TRUE",0.2,1,2,6537,NA,"Male","White","Not Hispanic or Latino","English","Lab","PA","radial-laminar-2dps-05-10-15-20-pct-coh","radial-laminar-8dps-05-10-15-20-pct-coh","8 deg/s test with 5, 10, 15, 20% coherence levels","2-8-2-8",21.9055441478439
"230",1,2014-10-28,5,6,"linear",0.05,0,"L",1.735,"TRUE",0.05,1,2,6537,NA,"Male","White","Not Hispanic or Latino","English","Lab","PA","radial-laminar-2dps-05-10-15-20-pct-coh","radial-laminar-8dps-05-10-15-20-pct-coh","8 deg/s test with 5, 10, 15, 20% coherence levels","2-8-2-8",21.9055441478439
"231",1,2014-10-28,5,7,"linear",0,0.2,"R",2.1192,"TRUE",0.2,1,2,6537,NA,"Male","White","Not Hispanic or Latino","English","Lab","PA","radial-laminar-2dps-05-10-15-20-pct-coh","radial-laminar-8dps-05-10-15-20-pct-coh","8 deg/s test with 5, 10, 15, 20% coherence levels","2-8-2-8",21.9055441478439
"232",1,2014-10-28,5,8,"radial",0,0.15,"R",1.2176,"TRUE",0.15,1,2,6537,NA,"Male","White","Not Hispanic or Latino","English","Lab","PA","radial-laminar-2dps-05-10-15-20-pct-coh","radial-laminar-8dps-05-10-15-20-pct-coh","8 deg/s test with 5, 10, 15, 20% coherence levels","2-8-2-8",21.9055441478439
"233",1,2014-10-28,5,9,"radial",0.05,0,"R",2.9192,"FALSE",0.05,1,2,6537,NA,"Male","White","Not Hispanic or Latino","English","Lab","PA","radial-laminar-2dps-05-10-15-20-pct-coh","radial-laminar-8dps-05-10-15-20-pct-coh","8 deg/s test with 5, 10, 15, 20% coherence levels","2-8-2-8",21.9055441478439
"234",1,2014-10-28,5,10,"radial",0.15,0,"L",1.135,"TRUE",0.15,1,2,6537,NA,"Male","White","Not Hispanic or Latino","English","Lab","PA","radial-laminar-2dps-05-10-15-20-pct-coh","radial-laminar-8dps-05-10-15-20-pct-coh","8 deg/s test with 5, 10, 15, 20% coherence levels","2-8-2-8",21.9055441478439
"235",1,2014-10-28,5,11,"radial",0,0.1,"L",2.9196,"FALSE",0.1,1,2,6537,NA,"Male","White","Not Hispanic or Latino","English","Lab","PA","radial-laminar-2dps-05-10-15-20-pct-coh","radial-laminar-8dps-05-10-15-20-pct-coh","8 deg/s test with 5, 10, 15, 20% coherence levels","2-8-2-8",21.9055441478439
"236",1,2014-10-28,5,12,"radial",0.1,0,"L",1.8184,"TRUE",0.1,1,2,6537,NA,"Male","White","Not Hispanic or Latino","English","Lab","PA","radial-laminar-2dps-05-10-15-20-pct-coh","radial-laminar-8dps-05-10-15-20-pct-coh","8 deg/s test with 5, 10, 15, 20% coherence levels","2-8-2-8",21.9055441478439
"237",1,2014-10-28,5,13,"linear",0,0.15,"R",1.6184,"TRUE",0.15,1,2,6537,NA,"Male","White","Not Hispanic or Latino","English","Lab","PA","radial-laminar-2dps-05-10-15-20-pct-coh","radial-laminar-8dps-05-10-15-20-pct-coh","8 deg/s test with 5, 10, 15, 20% coherence levels","2-8-2-8",21.9055441478439
"238",1,2014-10-28,5,14,"linear",0,0.1,"R",2.4521,"TRUE",0.1,1,2,6537,NA,"Male","White","Not Hispanic or Latino","English","Lab","PA","radial-laminar-2dps-05-10-15-20-pct-coh","radial-laminar-8dps-05-10-15-20-pct-coh","8 deg/s test with 5, 10, 15, 20% coherence levels","2-8-2-8",21.9055441478439
"239",1,2014-10-28,5,15,"linear",0,0.05,"R",2.1519,"TRUE",0.05,1,2,6537,NA,"Male","White","Not Hispanic or Latino","English","Lab","PA","radial-laminar-2dps-05-10-15-20-pct-coh","radial-laminar-8dps-05-10-15-20-pct-coh","8 deg/s test with 5, 10, 15, 20% coherence levels","2-8-2-8",21.9055441478439
"240",1,2014-10-28,5,16,"linear",0.15,0,"L",0.86788,"TRUE",0.15,1,2,6537,NA,"Male","White","Not Hispanic or Latino","English","Lab","PA","radial-laminar-2dps-05-10-15-20-pct-coh","radial-laminar-8dps-05-10-15-20-pct-coh","8 deg/s test with 5, 10, 15, 20% coherence levels","2-8-2-8",21.9055441478439
"241",1,2014-10-28,1,1,"linear",0.1,0,"L",1.1177,"TRUE",0.1,3,2,6537,NA,"Male","White","Not Hispanic or Latino","English","Lab","PA","radial-laminar-2dps-05-10-15-20-pct-coh","radial-laminar-8dps-05-10-15-20-pct-coh","8 deg/s test with 5, 10, 15, 20% coherence levels","2-8-2-8",21.9055441478439
"242",1,2014-10-28,1,2,"linear",0.2,0,"L",0.88429,"TRUE",0.2,3,2,6537,NA,"Male","White","Not Hispanic or Latino","English","Lab","PA","radial-laminar-2dps-05-10-15-20-pct-coh","radial-laminar-8dps-05-10-15-20-pct-coh","8 deg/s test with 5, 10, 15, 20% coherence levels","2-8-2-8",21.9055441478439
"243",1,2014-10-28,1,3,"radial",0.2,0,"L",1.0009,"TRUE",0.2,3,2,6537,NA,"Male","White","Not Hispanic or Latino","English","Lab","PA","radial-laminar-2dps-05-10-15-20-pct-coh","radial-laminar-8dps-05-10-15-20-pct-coh","8 deg/s test with 5, 10, 15, 20% coherence levels","2-8-2-8",21.9055441478439
"244",1,2014-10-28,1,4,"linear",0.05,0,"R",1.2698,"FALSE",0.05,3,2,6537,NA,"Male","White","Not Hispanic or Latino","English","Lab","PA","radial-laminar-2dps-05-10-15-20-pct-coh","radial-laminar-8dps-05-10-15-20-pct-coh","8 deg/s test with 5, 10, 15, 20% coherence levels","2-8-2-8",21.9055441478439
"245",1,2014-10-28,1,5,"linear",0,0.2,"L",0.81755,"FALSE",0.2,3,2,6537,NA,"Male","White","Not Hispanic or Latino","English","Lab","PA","radial-laminar-2dps-05-10-15-20-pct-coh","radial-laminar-8dps-05-10-15-20-pct-coh","8 deg/s test with 5, 10, 15, 20% coherence levels","2-8-2-8",21.9055441478439
"246",1,2014-10-28,1,6,"radial",0,0.05,"R",2.5084,"TRUE",0.05,3,2,6537,NA,"Male","White","Not Hispanic or Latino","English","Lab","PA","radial-laminar-2dps-05-10-15-20-pct-coh","radial-laminar-8dps-05-10-15-20-pct-coh","8 deg/s test with 5, 10, 15, 20% coherence levels","2-8-2-8",21.9055441478439
"247",1,2014-10-28,1,7,"radial",0,0.2,"R",1.1067,"TRUE",0.2,3,2,6537,NA,"Male","White","Not Hispanic or Latino","English","Lab","PA","radial-laminar-2dps-05-10-15-20-pct-coh","radial-laminar-8dps-05-10-15-20-pct-coh","8 deg/s test with 5, 10, 15, 20% coherence levels","2-8-2-8",21.9055441478439
"248",1,2014-10-28,1,8,"linear",0,0.15,"R",0.90144,"TRUE",0.15,3,2,6537,NA,"Male","White","Not Hispanic or Latino","English","Lab","PA","radial-laminar-2dps-05-10-15-20-pct-coh","radial-laminar-8dps-05-10-15-20-pct-coh","8 deg/s test with 5, 10, 15, 20% coherence levels","2-8-2-8",21.9055441478439
"249",1,2014-10-28,1,9,"radial",0,0.15,"R",1.4724,"TRUE",0.15,3,2,6537,NA,"Male","White","Not Hispanic or Latino","English","Lab","PA","radial-laminar-2dps-05-10-15-20-pct-coh","radial-laminar-8dps-05-10-15-20-pct-coh","8 deg/s test with 5, 10, 15, 20% coherence levels","2-8-2-8",21.9055441478439
"250",1,2014-10-28,1,10,"linear",0,0.1,"L",1.6684,"FALSE",0.1,3,2,6537,NA,"Male","White","Not Hispanic or Latino","English","Lab","PA","radial-laminar-2dps-05-10-15-20-pct-coh","radial-laminar-8dps-05-10-15-20-pct-coh","8 deg/s test with 5, 10, 15, 20% coherence levels","2-8-2-8",21.9055441478439
"251",1,2014-10-28,1,11,"radial",0.05,0,"R",2.0541,"FALSE",0.05,3,2,6537,NA,"Male","White","Not Hispanic or Latino","English","Lab","PA","radial-laminar-2dps-05-10-15-20-pct-coh","radial-laminar-8dps-05-10-15-20-pct-coh","8 deg/s test with 5, 10, 15, 20% coherence levels","2-8-2-8",21.9055441478439
"252",1,2014-10-28,1,12,"linear",0,0.05,"R",1.7856,"TRUE",0.05,3,2,6537,NA,"Male","White","Not Hispanic or Latino","English","Lab","PA","radial-laminar-2dps-05-10-15-20-pct-coh","radial-laminar-8dps-05-10-15-20-pct-coh","8 deg/s test with 5, 10, 15, 20% coherence levels","2-8-2-8",21.9055441478439
"253",1,2014-10-28,1,13,"radial",0.15,0,"R",1.9683,"FALSE",0.15,3,2,6537,NA,"Male","White","Not Hispanic or Latino","English","Lab","PA","radial-laminar-2dps-05-10-15-20-pct-coh","radial-laminar-8dps-05-10-15-20-pct-coh","8 deg/s test with 5, 10, 15, 20% coherence levels","2-8-2-8",21.9055441478439
"254",1,2014-10-28,1,14,"linear",0.15,0,"L",0.71756,"TRUE",0.15,3,2,6537,NA,"Male","White","Not Hispanic or Latino","English","Lab","PA","radial-laminar-2dps-05-10-15-20-pct-coh","radial-laminar-8dps-05-10-15-20-pct-coh","8 deg/s test with 5, 10, 15, 20% coherence levels","2-8-2-8",21.9055441478439
"255",1,2014-10-28,1,15,"radial",0,0.1,"R",1.3011,"TRUE",0.1,3,2,6537,NA,"Male","White","Not Hispanic or Latino","English","Lab","PA","radial-laminar-2dps-05-10-15-20-pct-coh","radial-laminar-8dps-05-10-15-20-pct-coh","8 deg/s test with 5, 10, 15, 20% coherence levels","2-8-2-8",21.9055441478439
"256",1,2014-10-28,1,16,"radial",0.1,0,"L",1.2845,"TRUE",0.1,3,2,6537,NA,"Male","White","Not Hispanic or Latino","English","Lab","PA","radial-laminar-2dps-05-10-15-20-pct-coh","radial-laminar-8dps-05-10-15-20-pct-coh","8 deg/s test with 5, 10, 15, 20% coherence levels","2-8-2-8",21.9055441478439
"257",1,2014-10-28,2,1,"radial",0.2,0,"L",1.051,"TRUE",0.2,3,2,6537,NA,"Male","White","Not Hispanic or Latino","English","Lab","PA","radial-laminar-2dps-05-10-15-20-pct-coh","radial-laminar-8dps-05-10-15-20-pct-coh","8 deg/s test with 5, 10, 15, 20% coherence levels","2-8-2-8",21.9055441478439
"258",1,2014-10-28,2,2,"linear",0.1,0,"L",0.96758,"TRUE",0.1,3,2,6537,NA,"Male","White","Not Hispanic or Latino","English","Lab","PA","radial-laminar-2dps-05-10-15-20-pct-coh","radial-laminar-8dps-05-10-15-20-pct-coh","8 deg/s test with 5, 10, 15, 20% coherence levels","2-8-2-8",21.9055441478439
"259",1,2014-10-28,2,3,"linear",0.2,0,"L",0.75052,"TRUE",0.2,3,2,6537,NA,"Male","White","Not Hispanic or Latino","English","Lab","PA","radial-laminar-2dps-05-10-15-20-pct-coh","radial-laminar-8dps-05-10-15-20-pct-coh","8 deg/s test with 5, 10, 15, 20% coherence levels","2-8-2-8",21.9055441478439
"260",1,2014-10-28,2,4,"linear",0.05,0,"R",1.9851,"FALSE",0.05,3,2,6537,NA,"Male","White","Not Hispanic or Latino","English","Lab","PA","radial-laminar-2dps-05-10-15-20-pct-coh","radial-laminar-8dps-05-10-15-20-pct-coh","8 deg/s test with 5, 10, 15, 20% coherence levels","2-8-2-8",21.9055441478439
"261",1,2014-10-28,2,5,"linear",0,0.2,"L",0.98434,"FALSE",0.2,3,2,6537,NA,"Male","White","Not Hispanic or Latino","English","Lab","PA","radial-laminar-2dps-05-10-15-20-pct-coh","radial-laminar-8dps-05-10-15-20-pct-coh","8 deg/s test with 5, 10, 15, 20% coherence levels","2-8-2-8",21.9055441478439
"262",1,2014-10-28,2,6,"radial",0,0.05,"L",1.3678,"FALSE",0.05,3,2,6537,NA,"Male","White","Not Hispanic or Latino","English","Lab","PA","radial-laminar-2dps-05-10-15-20-pct-coh","radial-laminar-8dps-05-10-15-20-pct-coh","8 deg/s test with 5, 10, 15, 20% coherence levels","2-8-2-8",21.9055441478439
"263",1,2014-10-28,2,7,"radial",0,0.2,"R",0.9176,"TRUE",0.2,3,2,6537,NA,"Male","White","Not Hispanic or Latino","English","Lab","PA","radial-laminar-2dps-05-10-15-20-pct-coh","radial-laminar-8dps-05-10-15-20-pct-coh","8 deg/s test with 5, 10, 15, 20% coherence levels","2-8-2-8",21.9055441478439
"264",1,2014-10-28,2,8,"linear",0,0.15,"R",1.5897,"TRUE",0.15,3,2,6537,NA,"Male","White","Not Hispanic or Latino","English","Lab","PA","radial-laminar-2dps-05-10-15-20-pct-coh","radial-laminar-8dps-05-10-15-20-pct-coh","8 deg/s test with 5, 10, 15, 20% coherence levels","2-8-2-8",21.9055441478439
"265",1,2014-10-28,2,9,"linear",0,0.1,"L",0.8025,"FALSE",0.1,3,2,6537,NA,"Male","White","Not Hispanic or Latino","English","Lab","PA","radial-laminar-2dps-05-10-15-20-pct-coh","radial-laminar-8dps-05-10-15-20-pct-coh","8 deg/s test with 5, 10, 15, 20% coherence levels","2-8-2-8",21.9055441478439
"266",1,2014-10-28,2,10,"radial",0,0.15,"L",2.569,"FALSE",0.15,3,2,6537,NA,"Male","White","Not Hispanic or Latino","English","Lab","PA","radial-laminar-2dps-05-10-15-20-pct-coh","radial-laminar-8dps-05-10-15-20-pct-coh","8 deg/s test with 5, 10, 15, 20% coherence levels","2-8-2-8",21.9055441478439
"267",1,2014-10-28,2,11,"radial",0.05,0,"L",1.537,"TRUE",0.05,3,2,6537,NA,"Male","White","Not Hispanic or Latino","English","Lab","PA","radial-laminar-2dps-05-10-15-20-pct-coh","radial-laminar-8dps-05-10-15-20-pct-coh","8 deg/s test with 5, 10, 15, 20% coherence levels","2-8-2-8",21.9055441478439
"268",1,2014-10-28,2,12,"radial",0.15,0,"R",1.7183,"FALSE",0.15,3,2,6537,NA,"Male","White","Not Hispanic or Latino","English","Lab","PA","radial-laminar-2dps-05-10-15-20-pct-coh","radial-laminar-8dps-05-10-15-20-pct-coh","8 deg/s test with 5, 10, 15, 20% coherence levels","2-8-2-8",21.9055441478439
"269",1,2014-10-28,2,13,"linear",0,0.05,"R",1.5012,"TRUE",0.05,3,2,6537,NA,"Male","White","Not Hispanic or Latino","English","Lab","PA","radial-laminar-2dps-05-10-15-20-pct-coh","radial-laminar-8dps-05-10-15-20-pct-coh","8 deg/s test with 5, 10, 15, 20% coherence levels","2-8-2-8",21.9055441478439
"270",1,2014-10-28,2,14,"radial",0,0.1,"R",0.951,"TRUE",0.1,3,2,6537,NA,"Male","White","Not Hispanic or Latino","English","Lab","PA","radial-laminar-2dps-05-10-15-20-pct-coh","radial-laminar-8dps-05-10-15-20-pct-coh","8 deg/s test with 5, 10, 15, 20% coherence levels","2-8-2-8",21.9055441478439
"271",1,2014-10-28,2,15,"radial",0.1,0,"L",3.3028,"TRUE",0.1,3,2,6537,NA,"Male","White","Not Hispanic or Latino","English","Lab","PA","radial-laminar-2dps-05-10-15-20-pct-coh","radial-laminar-8dps-05-10-15-20-pct-coh","8 deg/s test with 5, 10, 15, 20% coherence levels","2-8-2-8",21.9055441478439
"272",1,2014-10-28,2,16,"linear",0.15,0,"L",2.3018,"TRUE",0.15,3,2,6537,NA,"Male","White","Not Hispanic or Latino","English","Lab","PA","radial-laminar-2dps-05-10-15-20-pct-coh","radial-laminar-8dps-05-10-15-20-pct-coh","8 deg/s test with 5, 10, 15, 20% coherence levels","2-8-2-8",21.9055441478439
"273",1,2014-10-28,3,1,"radial",0.2,0,"L",2.29,"TRUE",0.2,3,2,6537,NA,"Male","White","Not Hispanic or Latino","English","Lab","PA","radial-laminar-2dps-05-10-15-20-pct-coh","radial-laminar-8dps-05-10-15-20-pct-coh","8 deg/s test with 5, 10, 15, 20% coherence levels","2-8-2-8",21.9055441478439
"274",1,2014-10-28,3,2,"radial",0,0.05,"L",2.569,"FALSE",0.05,3,2,6537,NA,"Male","White","Not Hispanic or Latino","English","Lab","PA","radial-laminar-2dps-05-10-15-20-pct-coh","radial-laminar-8dps-05-10-15-20-pct-coh","8 deg/s test with 5, 10, 15, 20% coherence levels","2-8-2-8",21.9055441478439
"275",1,2014-10-28,3,3,"radial",0,0.2,"L",0.9676,"FALSE",0.2,3,2,6537,NA,"Male","White","Not Hispanic or Latino","English","Lab","PA","radial-laminar-2dps-05-10-15-20-pct-coh","radial-laminar-8dps-05-10-15-20-pct-coh","8 deg/s test with 5, 10, 15, 20% coherence levels","2-8-2-8",21.9055441478439
"276",1,2014-10-28,3,4,"radial",0,0.15,"R",1.3752,"TRUE",0.15,3,2,6537,NA,"Male","White","Not Hispanic or Latino","English","Lab","PA","radial-laminar-2dps-05-10-15-20-pct-coh","radial-laminar-8dps-05-10-15-20-pct-coh","8 deg/s test with 5, 10, 15, 20% coherence levels","2-8-2-8",21.9055441478439
"277",1,2014-10-28,3,5,"linear",0.1,0,"L",1.5682,"TRUE",0.1,3,2,6537,NA,"Male","White","Not Hispanic or Latino","English","Lab","PA","radial-laminar-2dps-05-10-15-20-pct-coh","radial-laminar-8dps-05-10-15-20-pct-coh","8 deg/s test with 5, 10, 15, 20% coherence levels","2-8-2-8",21.9055441478439
"278",1,2014-10-28,3,6,"linear",0.2,0,"L",0.96798,"TRUE",0.2,3,2,6537,NA,"Male","White","Not Hispanic or Latino","English","Lab","PA","radial-laminar-2dps-05-10-15-20-pct-coh","radial-laminar-8dps-05-10-15-20-pct-coh","8 deg/s test with 5, 10, 15, 20% coherence levels","2-8-2-8",21.9055441478439
"279",1,2014-10-28,3,7,"linear",0.05,0,"R",1.9014,"FALSE",0.05,3,2,6537,NA,"Male","White","Not Hispanic or Latino","English","Lab","PA","radial-laminar-2dps-05-10-15-20-pct-coh","radial-laminar-8dps-05-10-15-20-pct-coh","8 deg/s test with 5, 10, 15, 20% coherence levels","2-8-2-8",21.9055441478439
"280",1,2014-10-28,3,8,"linear",0,0.2,"R",1.0513,"TRUE",0.2,3,2,6537,NA,"Male","White","Not Hispanic or Latino","English","Lab","PA","radial-laminar-2dps-05-10-15-20-pct-coh","radial-laminar-8dps-05-10-15-20-pct-coh","8 deg/s test with 5, 10, 15, 20% coherence levels","2-8-2-8",21.9055441478439
"281",1,2014-10-28,3,9,"linear",0,0.15,"L",2.0353,"FALSE",0.15,3,2,6537,NA,"Male","White","Not Hispanic or Latino","English","Lab","PA","radial-laminar-2dps-05-10-15-20-pct-coh","radial-laminar-8dps-05-10-15-20-pct-coh","8 deg/s test with 5, 10, 15, 20% coherence levels","2-8-2-8",21.9055441478439
"282",1,2014-10-28,3,10,"radial",0.05,0,"R",1.2844,"FALSE",0.05,3,2,6537,NA,"Male","White","Not Hispanic or Latino","English","Lab","PA","radial-laminar-2dps-05-10-15-20-pct-coh","radial-laminar-8dps-05-10-15-20-pct-coh","8 deg/s test with 5, 10, 15, 20% coherence levels","2-8-2-8",21.9055441478439
"283",1,2014-10-28,3,11,"radial",0.15,0,"L",1.0178,"TRUE",0.15,3,2,6537,NA,"Male","White","Not Hispanic or Latino","English","Lab","PA","radial-laminar-2dps-05-10-15-20-pct-coh","radial-laminar-8dps-05-10-15-20-pct-coh","8 deg/s test with 5, 10, 15, 20% coherence levels","2-8-2-8",21.9055441478439
"284",1,2014-10-28,3,12,"radial",0,0.1,"L",1.9017,"FALSE",0.1,3,2,6537,NA,"Male","White","Not Hispanic or Latino","English","Lab","PA","radial-laminar-2dps-05-10-15-20-pct-coh","radial-laminar-8dps-05-10-15-20-pct-coh","8 deg/s test with 5, 10, 15, 20% coherence levels","2-8-2-8",21.9055441478439
"285",1,2014-10-28,3,13,"radial",0.1,0,"R",2.7525,"FALSE",0.1,3,2,6537,NA,"Male","White","Not Hispanic or Latino","English","Lab","PA","radial-laminar-2dps-05-10-15-20-pct-coh","radial-laminar-8dps-05-10-15-20-pct-coh","8 deg/s test with 5, 10, 15, 20% coherence levels","2-8-2-8",21.9055441478439
"286",1,2014-10-28,3,14,"linear",0,0.1,"R",1.4346,"TRUE",0.1,3,2,6537,NA,"Male","White","Not Hispanic or Latino","English","Lab","PA","radial-laminar-2dps-05-10-15-20-pct-coh","radial-laminar-8dps-05-10-15-20-pct-coh","8 deg/s test with 5, 10, 15, 20% coherence levels","2-8-2-8",21.9055441478439
"287",1,2014-10-28,3,15,"linear",0,0.05,"R",1.8515,"TRUE",0.05,3,2,6537,NA,"Male","White","Not Hispanic or Latino","English","Lab","PA","radial-laminar-2dps-05-10-15-20-pct-coh","radial-laminar-8dps-05-10-15-20-pct-coh","8 deg/s test with 5, 10, 15, 20% coherence levels","2-8-2-8",21.9055441478439
"288",1,2014-10-28,3,16,"linear",0.15,0,"L",1.0343,"TRUE",0.15,3,2,6537,NA,"Male","White","Not Hispanic or Latino","English","Lab","PA","radial-laminar-2dps-05-10-15-20-pct-coh","radial-laminar-8dps-05-10-15-20-pct-coh","8 deg/s test with 5, 10, 15, 20% coherence levels","2-8-2-8",21.9055441478439
"289",1,2014-10-28,4,1,"linear",0.1,0,"L",3.72,"TRUE",0.1,3,2,6537,NA,"Male","White","Not Hispanic or Latino","English","Lab","PA","radial-laminar-2dps-05-10-15-20-pct-coh","radial-laminar-8dps-05-10-15-20-pct-coh","8 deg/s test with 5, 10, 15, 20% coherence levels","2-8-2-8",21.9055441478439
"290",1,2014-10-28,4,2,"radial",0.2,0,"L",1.0176,"TRUE",0.2,3,2,6537,NA,"Male","White","Not Hispanic or Latino","English","Lab","PA","radial-laminar-2dps-05-10-15-20-pct-coh","radial-laminar-8dps-05-10-15-20-pct-coh","8 deg/s test with 5, 10, 15, 20% coherence levels","2-8-2-8",21.9055441478439
"291",1,2014-10-28,4,3,"radial",0,0.05,"L",1.4347,"FALSE",0.05,3,2,6537,NA,"Male","White","Not Hispanic or Latino","English","Lab","PA","radial-laminar-2dps-05-10-15-20-pct-coh","radial-laminar-8dps-05-10-15-20-pct-coh","8 deg/s test with 5, 10, 15, 20% coherence levels","2-8-2-8",21.9055441478439
"292",1,2014-10-28,4,4,"linear",0.2,0,"L",0.90088,"TRUE",0.2,3,2,6537,NA,"Male","White","Not Hispanic or Latino","English","Lab","PA","radial-laminar-2dps-05-10-15-20-pct-coh","radial-laminar-8dps-05-10-15-20-pct-coh","8 deg/s test with 5, 10, 15, 20% coherence levels","2-8-2-8",21.9055441478439
"293",1,2014-10-28,4,5,"linear",0.05,0,"R",1.3349,"FALSE",0.05,3,2,6537,NA,"Male","White","Not Hispanic or Latino","English","Lab","PA","radial-laminar-2dps-05-10-15-20-pct-coh","radial-laminar-8dps-05-10-15-20-pct-coh","8 deg/s test with 5, 10, 15, 20% coherence levels","2-8-2-8",21.9055441478439
"294",1,2014-10-28,4,6,"radial",0,0.2,"R",1.3533,"TRUE",0.2,3,2,6537,NA,"Male","White","Not Hispanic or Latino","English","Lab","PA","radial-laminar-2dps-05-10-15-20-pct-coh","radial-laminar-8dps-05-10-15-20-pct-coh","8 deg/s test with 5, 10, 15, 20% coherence levels","2-8-2-8",21.9055441478439
"295",1,2014-10-28,4,7,"radial",0,0.15,"R",1.6035,"TRUE",0.15,3,2,6537,NA,"Male","White","Not Hispanic or Latino","English","Lab","PA","radial-laminar-2dps-05-10-15-20-pct-coh","radial-laminar-8dps-05-10-15-20-pct-coh","8 deg/s test with 5, 10, 15, 20% coherence levels","2-8-2-8",21.9055441478439
"296",1,2014-10-28,4,8,"linear",0,0.2,"R",0.96778,"TRUE",0.2,3,2,6537,NA,"Male","White","Not Hispanic or Latino","English","Lab","PA","radial-laminar-2dps-05-10-15-20-pct-coh","radial-laminar-8dps-05-10-15-20-pct-coh","8 deg/s test with 5, 10, 15, 20% coherence levels","2-8-2-8",21.9055441478439
"297",1,2014-10-28,4,9,"linear",0,0.15,"R",1.601,"TRUE",0.15,3,2,6537,NA,"Male","White","Not Hispanic or Latino","English","Lab","PA","radial-laminar-2dps-05-10-15-20-pct-coh","radial-laminar-8dps-05-10-15-20-pct-coh","8 deg/s test with 5, 10, 15, 20% coherence levels","2-8-2-8",21.9055441478439
"298",1,2014-10-28,4,10,"linear",0,0.1,"L",1.5345,"FALSE",0.1,3,2,6537,NA,"Male","White","Not Hispanic or Latino","English","Lab","PA","radial-laminar-2dps-05-10-15-20-pct-coh","radial-laminar-8dps-05-10-15-20-pct-coh","8 deg/s test with 5, 10, 15, 20% coherence levels","2-8-2-8",21.9055441478439
"299",1,2014-10-28,4,11,"radial",0.05,0,"L",2.7527,"TRUE",0.05,3,2,6537,NA,"Male","White","Not Hispanic or Latino","English","Lab","PA","radial-laminar-2dps-05-10-15-20-pct-coh","radial-laminar-8dps-05-10-15-20-pct-coh","8 deg/s test with 5, 10, 15, 20% coherence levels","2-8-2-8",21.9055441478439
"300",1,2014-10-28,4,12,"linear",0,0.05,"R",2.2884,"TRUE",0.05,3,2,6537,NA,"Male","White","Not Hispanic or Latino","English","Lab","PA","radial-laminar-2dps-05-10-15-20-pct-coh","radial-laminar-8dps-05-10-15-20-pct-coh","8 deg/s test with 5, 10, 15, 20% coherence levels","2-8-2-8",21.9055441478439
"301",1,2014-10-28,4,13,"radial",0.15,0,"L",1.8187,"TRUE",0.15,3,2,6537,NA,"Male","White","Not Hispanic or Latino","English","Lab","PA","radial-laminar-2dps-05-10-15-20-pct-coh","radial-laminar-8dps-05-10-15-20-pct-coh","8 deg/s test with 5, 10, 15, 20% coherence levels","2-8-2-8",21.9055441478439
"302",1,2014-10-28,4,14,"linear",0.15,0,"L",0.96766,"TRUE",0.15,3,2,6537,NA,"Male","White","Not Hispanic or Latino","English","Lab","PA","radial-laminar-2dps-05-10-15-20-pct-coh","radial-laminar-8dps-05-10-15-20-pct-coh","8 deg/s test with 5, 10, 15, 20% coherence levels","2-8-2-8",21.9055441478439
"303",1,2014-10-28,4,15,"radial",0,0.1,"L",1.4008,"FALSE",0.1,3,2,6537,NA,"Male","White","Not Hispanic or Latino","English","Lab","PA","radial-laminar-2dps-05-10-15-20-pct-coh","radial-laminar-8dps-05-10-15-20-pct-coh","8 deg/s test with 5, 10, 15, 20% coherence levels","2-8-2-8",21.9055441478439
"304",1,2014-10-28,4,16,"radial",0.1,0,"L",2.3188,"TRUE",0.1,3,2,6537,NA,"Male","White","Not Hispanic or Latino","English","Lab","PA","radial-laminar-2dps-05-10-15-20-pct-coh","radial-laminar-8dps-05-10-15-20-pct-coh","8 deg/s test with 5, 10, 15, 20% coherence levels","2-8-2-8",21.9055441478439
"305",1,2014-10-28,5,1,"radial",0.2,0,"L",1.1347,"TRUE",0.2,3,2,6537,NA,"Male","White","Not Hispanic or Latino","English","Lab","PA","radial-laminar-2dps-05-10-15-20-pct-coh","radial-laminar-8dps-05-10-15-20-pct-coh","8 deg/s test with 5, 10, 15, 20% coherence levels","2-8-2-8",21.9055441478439
"306",1,2014-10-28,5,2,"linear",0.1,0,"R",1.2702,"FALSE",0.1,3,2,6537,NA,"Male","White","Not Hispanic or Latino","English","Lab","PA","radial-laminar-2dps-05-10-15-20-pct-coh","radial-laminar-8dps-05-10-15-20-pct-coh","8 deg/s test with 5, 10, 15, 20% coherence levels","2-8-2-8",21.9055441478439
"307",1,2014-10-28,5,3,"linear",0.2,0,"L",0.8176,"TRUE",0.2,3,2,6537,NA,"Male","White","Not Hispanic or Latino","English","Lab","PA","radial-laminar-2dps-05-10-15-20-pct-coh","radial-laminar-8dps-05-10-15-20-pct-coh","8 deg/s test with 5, 10, 15, 20% coherence levels","2-8-2-8",21.9055441478439
"308",1,2014-10-28,5,4,"radial",0,0.05,"L",1.3177,"FALSE",0.05,3,2,6537,NA,"Male","White","Not Hispanic or Latino","English","Lab","PA","radial-laminar-2dps-05-10-15-20-pct-coh","radial-laminar-8dps-05-10-15-20-pct-coh","8 deg/s test with 5, 10, 15, 20% coherence levels","2-8-2-8",21.9055441478439
"309",1,2014-10-28,5,5,"radial",0,0.2,"R",0.90088,"TRUE",0.2,3,2,6537,NA,"Male","White","Not Hispanic or Latino","English","Lab","PA","radial-laminar-2dps-05-10-15-20-pct-coh","radial-laminar-8dps-05-10-15-20-pct-coh","8 deg/s test with 5, 10, 15, 20% coherence levels","2-8-2-8",21.9055441478439
"310",1,2014-10-28,5,6,"linear",0.05,0,"R",1.5846,"FALSE",0.05,3,2,6537,NA,"Male","White","Not Hispanic or Latino","English","Lab","PA","radial-laminar-2dps-05-10-15-20-pct-coh","radial-laminar-8dps-05-10-15-20-pct-coh","8 deg/s test with 5, 10, 15, 20% coherence levels","2-8-2-8",21.9055441478439
"311",1,2014-10-28,5,7,"linear",0,0.2,"R",1.0509,"TRUE",0.2,3,2,6537,NA,"Male","White","Not Hispanic or Latino","English","Lab","PA","radial-laminar-2dps-05-10-15-20-pct-coh","radial-laminar-8dps-05-10-15-20-pct-coh","8 deg/s test with 5, 10, 15, 20% coherence levels","2-8-2-8",21.9055441478439
"312",1,2014-10-28,5,8,"radial",0,0.15,"R",1.2697,"TRUE",0.15,3,2,6537,NA,"Male","White","Not Hispanic or Latino","English","Lab","PA","radial-laminar-2dps-05-10-15-20-pct-coh","radial-laminar-8dps-05-10-15-20-pct-coh","8 deg/s test with 5, 10, 15, 20% coherence levels","2-8-2-8",21.9055441478439
"313",1,2014-10-28,5,9,"radial",0.05,0,"L",1.7684,"TRUE",0.05,3,2,6537,NA,"Male","White","Not Hispanic or Latino","English","Lab","PA","radial-laminar-2dps-05-10-15-20-pct-coh","radial-laminar-8dps-05-10-15-20-pct-coh","8 deg/s test with 5, 10, 15, 20% coherence levels","2-8-2-8",21.9055441478439
"314",1,2014-10-28,5,10,"radial",0.15,0,"L",2.5307,"TRUE",0.15,3,2,6537,NA,"Male","White","Not Hispanic or Latino","English","Lab","PA","radial-laminar-2dps-05-10-15-20-pct-coh","radial-laminar-8dps-05-10-15-20-pct-coh","8 deg/s test with 5, 10, 15, 20% coherence levels","2-8-2-8",21.9055441478439
"315",1,2014-10-28,5,11,"radial",0,0.1,"L",1.3352,"FALSE",0.1,3,2,6537,NA,"Male","White","Not Hispanic or Latino","English","Lab","PA","radial-laminar-2dps-05-10-15-20-pct-coh","radial-laminar-8dps-05-10-15-20-pct-coh","8 deg/s test with 5, 10, 15, 20% coherence levels","2-8-2-8",21.9055441478439
"316",1,2014-10-28,5,12,"radial",0.1,0,"R",1.3176,"FALSE",0.1,3,2,6537,NA,"Male","White","Not Hispanic or Latino","English","Lab","PA","radial-laminar-2dps-05-10-15-20-pct-coh","radial-laminar-8dps-05-10-15-20-pct-coh","8 deg/s test with 5, 10, 15, 20% coherence levels","2-8-2-8",21.9055441478439
"317",1,2014-10-28,5,13,"linear",0,0.15,"R",1.0178,"TRUE",0.15,3,2,6537,NA,"Male","White","Not Hispanic or Latino","English","Lab","PA","radial-laminar-2dps-05-10-15-20-pct-coh","radial-laminar-8dps-05-10-15-20-pct-coh","8 deg/s test with 5, 10, 15, 20% coherence levels","2-8-2-8",21.9055441478439
"318",1,2014-10-28,5,14,"linear",0,0.1,"R",1.4343,"TRUE",0.1,3,2,6537,NA,"Male","White","Not Hispanic or Latino","English","Lab","PA","radial-laminar-2dps-05-10-15-20-pct-coh","radial-laminar-8dps-05-10-15-20-pct-coh","8 deg/s test with 5, 10, 15, 20% coherence levels","2-8-2-8",21.9055441478439
"319",1,2014-10-28,5,15,"linear",0,0.05,"R",1.902,"TRUE",0.05,3,2,6537,NA,"Male","White","Not Hispanic or Latino","English","Lab","PA","radial-laminar-2dps-05-10-15-20-pct-coh","radial-laminar-8dps-05-10-15-20-pct-coh","8 deg/s test with 5, 10, 15, 20% coherence levels","2-8-2-8",21.9055441478439
"320",1,2014-10-28,5,16,"linear",0.15,0,"L",1.0676,"TRUE",0.15,3,2,6537,NA,"Male","White","Not Hispanic or Latino","English","Lab","PA","radial-laminar-2dps-05-10-15-20-pct-coh","radial-laminar-8dps-05-10-15-20-pct-coh","8 deg/s test with 5, 10, 15, 20% coherence levels","2-8-2-8",21.9055441478439
"321",1,2014-10-28,1,1,"radial",0.15,0,"L",1.8853,"TRUE",0.15,2,8,6537,NA,"Male","White","Not Hispanic or Latino","English","Lab","PA","radial-laminar-2dps-05-10-15-20-pct-coh","radial-laminar-8dps-05-10-15-20-pct-coh","8 deg/s test with 5, 10, 15, 20% coherence levels","2-8-2-8",21.9055441478439
"322",1,2014-10-28,1,2,"radial",0.1,0,"R",3.1692,"FALSE",0.1,2,8,6537,NA,"Male","White","Not Hispanic or Latino","English","Lab","PA","radial-laminar-2dps-05-10-15-20-pct-coh","radial-laminar-8dps-05-10-15-20-pct-coh","8 deg/s test with 5, 10, 15, 20% coherence levels","2-8-2-8",21.9055441478439
"323",1,2014-10-28,1,3,"radial",0,0.15,"R",1.1596,"TRUE",0.15,2,8,6537,NA,"Male","White","Not Hispanic or Latino","English","Lab","PA","radial-laminar-2dps-05-10-15-20-pct-coh","radial-laminar-8dps-05-10-15-20-pct-coh","8 deg/s test with 5, 10, 15, 20% coherence levels","2-8-2-8",21.9055441478439
"324",1,2014-10-28,1,4,"radial",0,0.2,"R",1.3678,"TRUE",0.2,2,8,6537,NA,"Male","White","Not Hispanic or Latino","English","Lab","PA","radial-laminar-2dps-05-10-15-20-pct-coh","radial-laminar-8dps-05-10-15-20-pct-coh","8 deg/s test with 5, 10, 15, 20% coherence levels","2-8-2-8",21.9055441478439
"325",1,2014-10-28,1,5,"radial",0.05,0,"L",1.9517,"TRUE",0.05,2,8,6537,NA,"Male","White","Not Hispanic or Latino","English","Lab","PA","radial-laminar-2dps-05-10-15-20-pct-coh","radial-laminar-8dps-05-10-15-20-pct-coh","8 deg/s test with 5, 10, 15, 20% coherence levels","2-8-2-8",21.9055441478439
"326",1,2014-10-28,1,6,"linear",0.2,0,"L",1.0009,"TRUE",0.2,2,8,6537,NA,"Male","White","Not Hispanic or Latino","English","Lab","PA","radial-laminar-2dps-05-10-15-20-pct-coh","radial-laminar-8dps-05-10-15-20-pct-coh","8 deg/s test with 5, 10, 15, 20% coherence levels","2-8-2-8",21.9055441478439
"327",1,2014-10-28,1,7,"linear",0,0.1,"L",1.401,"FALSE",0.1,2,8,6537,NA,"Male","White","Not Hispanic or Latino","English","Lab","PA","radial-laminar-2dps-05-10-15-20-pct-coh","radial-laminar-8dps-05-10-15-20-pct-coh","8 deg/s test with 5, 10, 15, 20% coherence levels","2-8-2-8",21.9055441478439
"328",1,2014-10-28,1,8,"linear",0.15,0,"L",1.4181,"TRUE",0.15,2,8,6537,NA,"Male","White","Not Hispanic or Latino","English","Lab","PA","radial-laminar-2dps-05-10-15-20-pct-coh","radial-laminar-8dps-05-10-15-20-pct-coh","8 deg/s test with 5, 10, 15, 20% coherence levels","2-8-2-8",21.9055441478439
"329",1,2014-10-28,1,9,"radial",0,0.1,"R",2.36,"TRUE",0.1,2,8,6537,NA,"Male","White","Not Hispanic or Latino","English","Lab","PA","radial-laminar-2dps-05-10-15-20-pct-coh","radial-laminar-8dps-05-10-15-20-pct-coh","8 deg/s test with 5, 10, 15, 20% coherence levels","2-8-2-8",21.9055441478439
"330",1,2014-10-28,1,10,"linear",0.05,0,"L",3.4696,"TRUE",0.05,2,8,6537,NA,"Male","White","Not Hispanic or Latino","English","Lab","PA","radial-laminar-2dps-05-10-15-20-pct-coh","radial-laminar-8dps-05-10-15-20-pct-coh","8 deg/s test with 5, 10, 15, 20% coherence levels","2-8-2-8",21.9055441478439
"331",1,2014-10-28,1,11,"radial",0,0.05,"L",1.8183,"FALSE",0.05,2,8,6537,NA,"Male","White","Not Hispanic or Latino","English","Lab","PA","radial-laminar-2dps-05-10-15-20-pct-coh","radial-laminar-8dps-05-10-15-20-pct-coh","8 deg/s test with 5, 10, 15, 20% coherence levels","2-8-2-8",21.9055441478439
"332",1,2014-10-28,1,12,"radial",0.2,0,"L",1.0844,"TRUE",0.2,2,8,6537,NA,"Male","White","Not Hispanic or Latino","English","Lab","PA","radial-laminar-2dps-05-10-15-20-pct-coh","radial-laminar-8dps-05-10-15-20-pct-coh","8 deg/s test with 5, 10, 15, 20% coherence levels","2-8-2-8",21.9055441478439
"333",1,2014-10-28,1,13,"linear",0,0.15,"L",1.8519,"FALSE",0.15,2,8,6537,NA,"Male","White","Not Hispanic or Latino","English","Lab","PA","radial-laminar-2dps-05-10-15-20-pct-coh","radial-laminar-8dps-05-10-15-20-pct-coh","8 deg/s test with 5, 10, 15, 20% coherence levels","2-8-2-8",21.9055441478439
"334",1,2014-10-28,1,14,"linear",0,0.2,"R",1.9517,"TRUE",0.2,2,8,6537,NA,"Male","White","Not Hispanic or Latino","English","Lab","PA","radial-laminar-2dps-05-10-15-20-pct-coh","radial-laminar-8dps-05-10-15-20-pct-coh","8 deg/s test with 5, 10, 15, 20% coherence levels","2-8-2-8",21.9055441478439
"335",1,2014-10-28,1,15,"linear",0.1,0,"R",2.7022,"FALSE",0.1,2,8,6537,NA,"Male","White","Not Hispanic or Latino","English","Lab","PA","radial-laminar-2dps-05-10-15-20-pct-coh","radial-laminar-8dps-05-10-15-20-pct-coh","8 deg/s test with 5, 10, 15, 20% coherence levels","2-8-2-8",21.9055441478439
"336",1,2014-10-28,1,16,"linear",0,0.05,"L",2.3352,"FALSE",0.05,2,8,6537,NA,"Male","White","Not Hispanic or Latino","English","Lab","PA","radial-laminar-2dps-05-10-15-20-pct-coh","radial-laminar-8dps-05-10-15-20-pct-coh","8 deg/s test with 5, 10, 15, 20% coherence levels","2-8-2-8",21.9055441478439
"337",1,2014-10-28,2,1,"linear",0.2,0,"L",0.98428,"TRUE",0.2,2,8,6537,NA,"Male","White","Not Hispanic or Latino","English","Lab","PA","radial-laminar-2dps-05-10-15-20-pct-coh","radial-laminar-8dps-05-10-15-20-pct-coh","8 deg/s test with 5, 10, 15, 20% coherence levels","2-8-2-8",21.9055441478439
