"SubID","Block","Trial","PatternType","LeftCoh","RightCoh","Response","RT","Acc","Speed","AgeDays","Gender","Condition","Group","group.name","Coh"
"1043",1,6,"radial",0.45,0,"L",1.6063,TRUE,8,2704,"Male","unknown.no.rpt","linear-radial coh [.15 .3 .45 .6]",8228,0.45
"1043",1,9,"linear",0,0.3,"R",1.6185,TRUE,8,2704,"Male","unknown.no.rpt","linear-radial coh [.15 .3 .45 .6]",8228,0.3
"1043",2,11,"linear",0.45,0,"L",2.2521,TRUE,2,2704,"Male","unknown.no.rpt","linear-radial coh [.15 .3 .45 .6]",8228,0.45
"1043",3,13,"linear",0.45,0,"L",2.453,TRUE,2,2704,"Male","unknown.no.rpt","linear-radial coh [.15 .3 .45 .6]",8228,0.45
"1043",3,16,"radial",0,0.45,"R",1.4516,TRUE,2,2704,"Male","unknown.no.rpt","linear-radial coh [.15 .3 .45 .6]",8228,0.45
"1043",3,6,"radial",0.15,0,"L",2.2188,TRUE,2,2704,"Male","unknown.no.rpt","linear-radial coh [.15 .3 .45 .6]",8228,0.15
"1043",4,12,"radial",0.45,0,"L",1.2177,TRUE,8,2704,"Male","unknown.no.rpt","linear-radial coh [.15 .3 .45 .6]",8228,0.45
"1043",4,6,"radial",0.45,0,"L",1.4346,TRUE,8,2704,"Male","unknown.no.rpt","linear-radial coh [.15 .3 .45 .6]",8228,0.45
"1043",3,9,"radial",0,0.3,"R",2.3856,TRUE,2,2704,"Male","unknown.no.rpt","linear-radial coh [.15 .3 .45 .6]",8228,0.3
"1043",3,1,"linear",0.6,0,"L",1.3844,TRUE,2,2704,"Male","unknown.no.rpt","linear-radial coh [.15 .3 .45 .6]",8228,0.6
"1043",1,10,"linear",0,0.15,"R",3.2528,TRUE,8,2704,"Male","unknown.no.rpt","linear-radial coh [.15 .3 .45 .6]",8228,0.15
"1043",1,9,"radial",0,0.6,"R",1.8015,TRUE,8,2704,"Male","unknown.no.rpt","linear-radial coh [.15 .3 .45 .6]",8228,0.6
"1043",4,2,"radial",0,0.15,"R",1.5092,TRUE,8,2704,"Male","unknown.no.rpt","linear-radial coh [.15 .3 .45 .6]",8228,0.15
"1043",3,11,"radial",0,0.3,"R",1.3846,TRUE,2,2704,"Male","unknown.no.rpt","linear-radial coh [.15 .3 .45 .6]",8228,0.3
"1043",2,12,"radial",0,0.6,"R",9.4307,TRUE,2,2704,"Male","unknown.no.rpt","linear-radial coh [.15 .3 .45 .6]",8228,0.6
"1043",4,4,"radial",0,0.45,"R",2.2863,TRUE,8,2704,"Male","unknown.no.rpt","linear-radial coh [.15 .3 .45 .6]",8228,0.45
"1043",4,10,"radial",0.15,0,"L",1.0853,TRUE,8,2704,"Male","unknown.no.rpt","linear-radial coh [.15 .3 .45 .6]",8228,0.15
"1043",2,9,"linear",0.45,0,"R",3.9197,FALSE,2,2704,"Male","unknown.no.rpt","linear-radial coh [.15 .3 .45 .6]",8228,0.45
"1043",4,9,"radial",0,0.45,"R",1.6679,TRUE,8,2704,"Male","unknown.no.rpt","linear-radial coh [.15 .3 .45 .6]",8228,0.45
"1043",1,1,"radial",0.6,0,"L",1.4014,TRUE,8,2704,"Male","unknown.no.rpt","linear-radial coh [.15 .3 .45 .6]",8228,0.6
"1043",4,8,"radial",0.45,0,"L",1.318,TRUE,8,2704,"Male","unknown.no.rpt","linear-radial coh [.15 .3 .45 .6]",8228,0.45
"1043",3,10,"linear",0,0.15,"R",4.0703,TRUE,2,2704,"Male","unknown.no.rpt","linear-radial coh [.15 .3 .45 .6]",8228,0.15
"1043",4,16,"radial",0.3,0,"L",1.318,TRUE,8,2704,"Male","unknown.no.rpt","linear-radial coh [.15 .3 .45 .6]",8228,0.3
"1043",3,15,"linear",0,0.3,"R",8.2071,TRUE,2,2704,"Male","unknown.no.rpt","linear-radial coh [.15 .3 .45 .6]",8228,0.3
"1043",4,7,"linear",0,0.45,"R",2.9701,TRUE,8,2704,"Male","unknown.no.rpt","linear-radial coh [.15 .3 .45 .6]",8228,0.45
"1043",3,8,"linear",0,0.6,"R",1.5182,TRUE,2,2704,"Male","unknown.no.rpt","linear-radial coh [.15 .3 .45 .6]",8228,0.6
"1043",4,7,"radial",0,0.3,"R",1.285,TRUE,8,2704,"Male","unknown.no.rpt","linear-radial coh [.15 .3 .45 .6]",8228,0.3
"1043",1,4,"linear",0,0.45,"R",2.3392,TRUE,8,2704,"Male","unknown.no.rpt","linear-radial coh [.15 .3 .45 .6]",8228,0.45
"1043",4,14,"linear",0.45,0,"L",7.4062,TRUE,8,2704,"Male","unknown.no.rpt","linear-radial coh [.15 .3 .45 .6]",8228,0.45
"1043",2,4,"linear",0.6,0,"L",2.3356,TRUE,2,2704,"Male","unknown.no.rpt","linear-radial coh [.15 .3 .45 .6]",8228,0.6
"1043",1,3,"radial",0,0.15,"R",1.6023,TRUE,8,2704,"Male","unknown.no.rpt","linear-radial coh [.15 .3 .45 .6]",8228,0.15
"1043",2,7,"radial",0.6,0,"L",4.0716,TRUE,2,2704,"Male","unknown.no.rpt","linear-radial coh [.15 .3 .45 .6]",8228,0.6
"1043",4,6,"radial",0,0.3,"R",1.6516,TRUE,8,2704,"Male","unknown.no.rpt","linear-radial coh [.15 .3 .45 .6]",8228,0.3
"1043",1,12,"linear",0.45,0,"L",1.5869,TRUE,8,2704,"Male","unknown.no.rpt","linear-radial coh [.15 .3 .45 .6]",8228,0.45
"1043",4,12,"linear",0,0.3,"R",1.051,TRUE,8,2704,"Male","unknown.no.rpt","linear-radial coh [.15 .3 .45 .6]",8228,0.3
"1043",2,13,"linear",0,0.6,"R",2.3395,TRUE,2,2704,"Male","unknown.no.rpt","linear-radial coh [.15 .3 .45 .6]",8228,0.6
"1043",2,2,"radial",0.45,0,"L",2.2854,TRUE,2,2704,"Male","unknown.no.rpt","linear-radial coh [.15 .3 .45 .6]",8228,0.45
"1043",1,14,"radial",0.15,0,"L",3.7029,TRUE,8,2704,"Male","unknown.no.rpt","linear-radial coh [.15 .3 .45 .6]",8228,0.15
"1043",3,3,"radial",0.3,0,"L",1.6181,TRUE,2,2704,"Male","unknown.no.rpt","linear-radial coh [.15 .3 .45 .6]",8228,0.3
"1043",3,4,"linear",0,0.45,"R",1.3512,TRUE,2,2704,"Male","unknown.no.rpt","linear-radial coh [.15 .3 .45 .6]",8228,0.45
"1043",2,6,"radial",0.6,0,"L",1.3515,TRUE,2,2704,"Male","unknown.no.rpt","linear-radial coh [.15 .3 .45 .6]",8228,0.6
"1043",3,7,"radial",0.6,0,"L",1.3734,TRUE,2,2704,"Male","unknown.no.rpt","linear-radial coh [.15 .3 .45 .6]",8228,0.6
"1043",2,16,"radial",0,0.45,"R",1.8014,TRUE,2,2704,"Male","unknown.no.rpt","linear-radial coh [.15 .3 .45 .6]",8228,0.45
"1043",4,3,"radial",0,0.15,"R",2.0198,TRUE,8,2704,"Male","unknown.no.rpt","linear-radial coh [.15 .3 .45 .6]",8228,0.15
"1043",1,7,"radial",0,0.15,"R",3.1196,TRUE,8,2704,"Male","unknown.no.rpt","linear-radial coh [.15 .3 .45 .6]",8228,0.15
"1043",2,9,"linear",0,0.3,"L",1.0768,FALSE,2,2704,"Male","unknown.no.rpt","linear-radial coh [.15 .3 .45 .6]",8228,0.3
"1043",3,3,"linear",0.6,0,"L",2.5017,TRUE,2,2704,"Male","unknown.no.rpt","linear-radial coh [.15 .3 .45 .6]",8228,0.6
"1043",1,9,"radial",0,0.6,"R",1.3014,TRUE,8,2704,"Male","unknown.no.rpt","linear-radial coh [.15 .3 .45 .6]",8228,0.6
"1043",3,11,"radial",0,0.45,"R",2.4687,TRUE,2,2704,"Male","unknown.no.rpt","linear-radial coh [.15 .3 .45 .6]",8228,0.45
"1043",3,14,"linear",0,0.6,"R",2.3028,TRUE,2,2704,"Male","unknown.no.rpt","linear-radial coh [.15 .3 .45 .6]",8228,0.6
"1043",2,8,"linear",0.15,0,"R",5.3542,FALSE,2,2704,"Male","unknown.no.rpt","linear-radial coh [.15 .3 .45 .6]",8228,0.15
"1043",2,10,"linear",0,0.15,"L",2.6027,FALSE,2,2704,"Male","unknown.no.rpt","linear-radial coh [.15 .3 .45 .6]",8228,0.15
"1043",2,13,"linear",0,0.6,"R",1.591,TRUE,2,2704,"Male","unknown.no.rpt","linear-radial coh [.15 .3 .45 .6]",8228,0.6
"1043",2,10,"radial",0.3,0,"L",2.8025,TRUE,2,2704,"Male","unknown.no.rpt","linear-radial coh [.15 .3 .45 .6]",8228,0.3
"1043",3,9,"radial",0,0.3,"R",2.1018,TRUE,2,2704,"Male","unknown.no.rpt","linear-radial coh [.15 .3 .45 .6]",8228,0.3
"1043",2,13,"linear",0.45,0,"R",7.1104,FALSE,2,2704,"Male","unknown.no.rpt","linear-radial coh [.15 .3 .45 .6]",8228,0.45
"1043",1,5,"linear",0,0.6,"R",1.9683,TRUE,8,2704,"Male","unknown.no.rpt","linear-radial coh [.15 .3 .45 .6]",8228,0.6
"1043",3,8,"linear",0,0.15,"R",2.6522,TRUE,2,2704,"Male","unknown.no.rpt","linear-radial coh [.15 .3 .45 .6]",8228,0.15
"1043",2,8,"linear",0.15,0,"L",5.7884,TRUE,2,2704,"Male","unknown.no.rpt","linear-radial coh [.15 .3 .45 .6]",8228,0.15
"1043",1,2,"radial",0,0.15,"R",4.8377,TRUE,8,2704,"Male","unknown.no.rpt","linear-radial coh [.15 .3 .45 .6]",8228,0.15
"1043",3,2,"radial",0,0.15,"R",3.1695,TRUE,2,2704,"Male","unknown.no.rpt","linear-radial coh [.15 .3 .45 .6]",8228,0.15
"1043",1,15,"linear",0,0.15,"L",2.602,FALSE,8,2704,"Male","unknown.no.rpt","linear-radial coh [.15 .3 .45 .6]",8228,0.15
"1043",1,15,"radial",0.15,0,"L",1.1678,TRUE,8,2704,"Male","unknown.no.rpt","linear-radial coh [.15 .3 .45 .6]",8228,0.15
"1043",4,13,"linear",0.3,0,"L",5.1878,TRUE,8,2704,"Male","unknown.no.rpt","linear-radial coh [.15 .3 .45 .6]",8228,0.3
"1043",2,9,"radial",0,0.3,"R",1.556,TRUE,2,2704,"Male","unknown.no.rpt","linear-radial coh [.15 .3 .45 .6]",8228,0.3
"1043",2,13,"linear",0,0.3,"R",1.9282,TRUE,2,2704,"Male","unknown.no.rpt","linear-radial coh [.15 .3 .45 .6]",8228,0.3
"1043",1,8,"radial",0.45,0,"L",5.31,TRUE,8,2704,"Male","unknown.no.rpt","linear-radial coh [.15 .3 .45 .6]",8228,0.45
"1043",4,7,"radial",0,0.15,"R",3.8369,TRUE,8,2704,"Male","unknown.no.rpt","linear-radial coh [.15 .3 .45 .6]",8228,0.15
"1043",4,8,"radial",0.45,0,"L",1.2179,TRUE,8,2704,"Male","unknown.no.rpt","linear-radial coh [.15 .3 .45 .6]",8228,0.45
"1043",4,3,"linear",0.6,0,"L",1.3512,TRUE,8,2704,"Male","unknown.no.rpt","linear-radial coh [.15 .3 .45 .6]",8228,0.6
"1043",1,10,"radial",0.15,0,"L",1.3679,TRUE,8,2704,"Male","unknown.no.rpt","linear-radial coh [.15 .3 .45 .6]",8228,0.15
"1043",3,2,"radial",0,0.15,"R",2.886,TRUE,2,2704,"Male","unknown.no.rpt","linear-radial coh [.15 .3 .45 .6]",8228,0.15
"1043",1,3,"linear",0.6,0,"L",1.4016,TRUE,8,2704,"Male","unknown.no.rpt","linear-radial coh [.15 .3 .45 .6]",8228,0.6
"1043",3,10,"radial",0.6,0,"L",3.2865,TRUE,2,2704,"Male","unknown.no.rpt","linear-radial coh [.15 .3 .45 .6]",8228,0.6
"1043",3,12,"linear",0,0.15,"R",6.0219,TRUE,2,2704,"Male","unknown.no.rpt","linear-radial coh [.15 .3 .45 .6]",8228,0.15
"1043",4,5,"radial",0,0.3,"R",2.3855,TRUE,8,2704,"Male","unknown.no.rpt","linear-radial coh [.15 .3 .45 .6]",8228,0.3
"1043",2,6,"radial",0.45,0,"L",1.6517,TRUE,2,2704,"Male","unknown.no.rpt","linear-radial coh [.15 .3 .45 .6]",8228,0.45
"1043",2,16,"radial",0,0.45,"R",1.5025,TRUE,2,2704,"Male","unknown.no.rpt","linear-radial coh [.15 .3 .45 .6]",8228,0.45
"1043",4,4,"radial",0,0.45,"R",1.3179,TRUE,8,2704,"Male","unknown.no.rpt","linear-radial coh [.15 .3 .45 .6]",8228,0.45
"1043",3,12,"radial",0,0.6,"L",2.4721,FALSE,2,2704,"Male","unknown.no.rpt","linear-radial coh [.15 .3 .45 .6]",8228,0.6
"1043",2,7,"linear",0,0.45,"R",1.5028,TRUE,2,2704,"Male","unknown.no.rpt","linear-radial coh [.15 .3 .45 .6]",8228,0.45
"1043",2,14,"linear",0,0.6,"L",3.2872,FALSE,2,2704,"Male","unknown.no.rpt","linear-radial coh [.15 .3 .45 .6]",8228,0.6
"1043",3,6,"radial",0.45,0,"L",1.6015,TRUE,2,2704,"Male","unknown.no.rpt","linear-radial coh [.15 .3 .45 .6]",8228,0.45
"1043",2,7,"radial",0.6,0,"L",1.418,TRUE,2,2704,"Male","unknown.no.rpt","linear-radial coh [.15 .3 .45 .6]",8228,0.6
"1043",1,1,"linear",0,0.6,"R",2.2868,TRUE,8,2704,"Male","unknown.no.rpt","linear-radial coh [.15 .3 .45 .6]",8228,0.6
"1043",4,4,"linear",0,0.45,"R",1.6179,TRUE,8,2704,"Male","unknown.no.rpt","linear-radial coh [.15 .3 .45 .6]",8228,0.45
"1043",4,14,"linear",0.45,0,"L",3.1198,TRUE,8,2704,"Male","unknown.no.rpt","linear-radial coh [.15 .3 .45 .6]",8228,0.45
"1043",4,2,"radial",0,0.15,"R",1.9191,TRUE,8,2704,"Male","unknown.no.rpt","linear-radial coh [.15 .3 .45 .6]",8228,0.15
"1043",4,8,"radial",0.45,0,"L",1.0344,TRUE,8,2704,"Male","unknown.no.rpt","linear-radial coh [.15 .3 .45 .6]",8228,0.45
"1043",4,8,"linear",0.45,0,"L",1.6346,TRUE,8,2704,"Male","unknown.no.rpt","linear-radial coh [.15 .3 .45 .6]",8228,0.45
"1043",2,4,"linear",0,0.45,"R",1.6848,TRUE,2,2704,"Male","unknown.no.rpt","linear-radial coh [.15 .3 .45 .6]",8228,0.45
"1043",1,13,"linear",0,0.15," ",0,FALSE,8,2704,"Male","unknown.no.rpt","linear-radial coh [.15 .3 .45 .6]",8228,0.15
"1043",2,13,"radial",0.6,0,"R",3.5292,FALSE,2,2704,"Male","unknown.no.rpt","linear-radial coh [.15 .3 .45 .6]",8228,0.6
"1043",4,4,"radial",0,0.45,"R",1.3847,TRUE,8,2704,"Male","unknown.no.rpt","linear-radial coh [.15 .3 .45 .6]",8228,0.45
"1043",2,14,"linear",0,0.3,"L",3.4195,FALSE,2,2704,"Male","unknown.no.rpt","linear-radial coh [.15 .3 .45 .6]",8228,0.3
"1043",1,12,"linear",0,0.3,"R",3.2695,TRUE,8,2704,"Male","unknown.no.rpt","linear-radial coh [.15 .3 .45 .6]",8228,0.3
"1043",2,9,"radial",0,0.3,"R",3.4076,TRUE,2,2704,"Male","unknown.no.rpt","linear-radial coh [.15 .3 .45 .6]",8228,0.3
"1043",3,3,"radial",0.45,0,"L",4.087,TRUE,2,2704,"Male","unknown.no.rpt","linear-radial coh [.15 .3 .45 .6]",8228,0.45
"1043",3,1,"radial",0,0.15,"R",1.6687,TRUE,2,2704,"Male","unknown.no.rpt","linear-radial coh [.15 .3 .45 .6]",8228,0.15
"1043",4,3,"radial",0,0.15,"R",1.3015,TRUE,8,2704,"Male","unknown.no.rpt","linear-radial coh [.15 .3 .45 .6]",8228,0.15
"1043",3,1,"radial",0,0.15,"R",1.4849,TRUE,2,2704,"Male","unknown.no.rpt","linear-radial coh [.15 .3 .45 .6]",8228,0.15
"1043",3,12,"radial",0,0.6,"R",1.4513,TRUE,2,2704,"Male","unknown.no.rpt","linear-radial coh [.15 .3 .45 .6]",8228,0.6
"1043",2,14,"linear",0,0.3,"R",3.1106,TRUE,2,2704,"Male","unknown.no.rpt","linear-radial coh [.15 .3 .45 .6]",8228,0.3
"1043",3,7,"radial",0.6,0,"L",3.5197,TRUE,2,2704,"Male","unknown.no.rpt","linear-radial coh [.15 .3 .45 .6]",8228,0.6
"1043",1,15,"linear",0,0.15,"R",6.9922,TRUE,8,2704,"Male","unknown.no.rpt","linear-radial coh [.15 .3 .45 .6]",8228,0.15
"1043",4,15,"radial",0.15,0,"L",1.2678,TRUE,8,2704,"Male","unknown.no.rpt","linear-radial coh [.15 .3 .45 .6]",8228,0.15
"1043",4,12,"linear",0,0.3,"R",3.1024,TRUE,8,2704,"Male","unknown.no.rpt","linear-radial coh [.15 .3 .45 .6]",8228,0.3
"1043",4,9,"radial",0.15,0,"L",2.1687,TRUE,8,2704,"Male","unknown.no.rpt","linear-radial coh [.15 .3 .45 .6]",8228,0.15
"1043",1,6,"linear",0,0.45,"R",2.2355,TRUE,8,2704,"Male","unknown.no.rpt","linear-radial coh [.15 .3 .45 .6]",8228,0.45
"1043",4,14,"radial",0,0.6,"R",1.0675,TRUE,8,2704,"Male","unknown.no.rpt","linear-radial coh [.15 .3 .45 .6]",8228,0.6
"1043",4,10,"linear",0,0.15,"R",2.9691,TRUE,8,2704,"Male","unknown.no.rpt","linear-radial coh [.15 .3 .45 .6]",8228,0.15
"1043",3,4,"linear",0.15,0,"L",1.8236,TRUE,2,2704,"Male","unknown.no.rpt","linear-radial coh [.15 .3 .45 .6]",8228,0.15
"1043",2,10,"linear",0,0.15,"R",5.0042,TRUE,2,2704,"Male","unknown.no.rpt","linear-radial coh [.15 .3 .45 .6]",8228,0.15
"1043",2,15,"radial",0,0.6,"R",1.6691,TRUE,2,2704,"Male","unknown.no.rpt","linear-radial coh [.15 .3 .45 .6]",8228,0.6
"1043",4,14,"radial",0.15,0,"L",1.9852,TRUE,8,2704,"Male","unknown.no.rpt","linear-radial coh [.15 .3 .45 .6]",8228,0.15
"1043",4,13,"linear",0,0.15,"R",2.5686,TRUE,8,2704,"Male","unknown.no.rpt","linear-radial coh [.15 .3 .45 .6]",8228,0.15
"1043",2,6,"radial",0.15,0,"L",1.6347,TRUE,2,2704,"Male","unknown.no.rpt","linear-radial coh [.15 .3 .45 .6]",8228,0.15
"1043",1,3,"radial",0,0.15,"L",2.3354,FALSE,8,2704,"Male","unknown.no.rpt","linear-radial coh [.15 .3 .45 .6]",8228,0.15
"1043",3,2,"radial",0.45,0,"L",1.6687,TRUE,2,2704,"Male","unknown.no.rpt","linear-radial coh [.15 .3 .45 .6]",8228,0.45
"1043",2,11,"radial",0,0.3,"R",1.2677,TRUE,2,2704,"Male","unknown.no.rpt","linear-radial coh [.15 .3 .45 .6]",8228,0.3
"1043",2,2,"linear",0,0.45,"L",4.0371,FALSE,2,2704,"Male","unknown.no.rpt","linear-radial coh [.15 .3 .45 .6]",8228,0.45
"1043",1,8,"radial",0.45,0,"L",1.469,TRUE,8,2704,"Male","unknown.no.rpt","linear-radial coh [.15 .3 .45 .6]",8228,0.45
"1043",4,6,"linear",0,0.45,"R",1.985,TRUE,8,2704,"Male","unknown.no.rpt","linear-radial coh [.15 .3 .45 .6]",8228,0.45
"1043",4,11,"radial",0,0.3,"R",1.301,TRUE,8,2704,"Male","unknown.no.rpt","linear-radial coh [.15 .3 .45 .6]",8228,0.3
"1043",1,11,"radial",0,0.6,"R",1.418,TRUE,8,2704,"Male","unknown.no.rpt","linear-radial coh [.15 .3 .45 .6]",8228,0.6
"1043",3,7,"linear",0,0.45,"R",1.9077,TRUE,2,2704,"Male","unknown.no.rpt","linear-radial coh [.15 .3 .45 .6]",8228,0.45
"1043",1,3,"radial",0,0.45,"R",1.4348,TRUE,8,2704,"Male","unknown.no.rpt","linear-radial coh [.15 .3 .45 .6]",8228,0.45
"1043",4,12,"radial",0.3,0,"L",1.5187,TRUE,8,2704,"Male","unknown.no.rpt","linear-radial coh [.15 .3 .45 .6]",8228,0.3
"1043",2,2,"radial",0,0.15,"R",8.1902,TRUE,2,2704,"Male","unknown.no.rpt","linear-radial coh [.15 .3 .45 .6]",8228,0.15
"1043",2,6,"radial",0.3,0,"L",1.3178,TRUE,2,2704,"Male","unknown.no.rpt","linear-radial coh [.15 .3 .45 .6]",8228,0.3
"1043",1,13,"linear",0.3,0,"L",1.868,TRUE,8,2704,"Male","unknown.no.rpt","linear-radial coh [.15 .3 .45 .6]",8228,0.3
"1043",1,1,"linear",0,0.6,"R",5.1377,TRUE,8,2704,"Male","unknown.no.rpt","linear-radial coh [.15 .3 .45 .6]",8228,0.6
"1043",3,5,"linear",0.15,0,"L",1.8399,TRUE,2,2704,"Male","unknown.no.rpt","linear-radial coh [.15 .3 .45 .6]",8228,0.15
"1043",2,15,"radial",0,0.45,"R",1.5118,TRUE,2,2704,"Male","unknown.no.rpt","linear-radial coh [.15 .3 .45 .6]",8228,0.45
"1043",4,10,"linear",0.3,0,"L",1.1692,TRUE,8,2704,"Male","unknown.no.rpt","linear-radial coh [.15 .3 .45 .6]",8228,0.3
"1043",3,13,"linear",0,0.6,"R",2.819,TRUE,2,2704,"Male","unknown.no.rpt","linear-radial coh [.15 .3 .45 .6]",8228,0.6
"1043",4,15,"linear",0,0.15,"R",3.7697,TRUE,8,2704,"Male","unknown.no.rpt","linear-radial coh [.15 .3 .45 .6]",8228,0.15
"1043",1,1,"radial",0.6,0,"L",3.0213,TRUE,8,2704,"Male","unknown.no.rpt","linear-radial coh [.15 .3 .45 .6]",8228,0.6
"1043",2,10,"radial",0,0.6,"R",1.6522,TRUE,2,2704,"Male","unknown.no.rpt","linear-radial coh [.15 .3 .45 .6]",8228,0.6
"1043",4,15,"linear",0,0.15,"R",5.1048,TRUE,8,2704,"Male","unknown.no.rpt","linear-radial coh [.15 .3 .45 .6]",8228,0.15
"1043",3,16,"linear",0.3,0,"L",5.7715,TRUE,2,2704,"Male","unknown.no.rpt","linear-radial coh [.15 .3 .45 .6]",8228,0.3
"1043",2,4,"linear",0,0.45,"L",4.137,FALSE,2,2704,"Male","unknown.no.rpt","linear-radial coh [.15 .3 .45 .6]",8228,0.45
"1043",3,7,"radial",0.15,0,"L",1.4738,TRUE,2,2704,"Male","unknown.no.rpt","linear-radial coh [.15 .3 .45 .6]",8228,0.15
"1043",2,16,"linear",0.3,0,"R",1.719,FALSE,2,2704,"Male","unknown.no.rpt","linear-radial coh [.15 .3 .45 .6]",8228,0.3
"1043",3,13,"radial",0.6,0,"L",2.9027,TRUE,2,2704,"Male","unknown.no.rpt","linear-radial coh [.15 .3 .45 .6]",8228,0.6
"1043",4,5,"linear",0,0.6,"R",2.1518,TRUE,8,2704,"Male","unknown.no.rpt","linear-radial coh [.15 .3 .45 .6]",8228,0.6
"1043",1,3,"linear",0,0.6,"R",1.9689,TRUE,8,2704,"Male","unknown.no.rpt","linear-radial coh [.15 .3 .45 .6]",8228,0.6
"1043",2,16,"linear",0.3,0,"L",1.7233,TRUE,2,2704,"Male","unknown.no.rpt","linear-radial coh [.15 .3 .45 .6]",8228,0.3
"1043",2,4,"linear",0.15,0,"R",4.308,FALSE,2,2704,"Male","unknown.no.rpt","linear-radial coh [.15 .3 .45 .6]",8228,0.15
"1043",1,6,"linear",0.6,0,"L",1.4851,TRUE,8,2704,"Male","unknown.no.rpt","linear-radial coh [.15 .3 .45 .6]",8228,0.6
"1043",3,9,"linear",0,0.3,"R",4.3201,TRUE,2,2704,"Male","unknown.no.rpt","linear-radial coh [.15 .3 .45 .6]",8228,0.3
"1043",1,9,"radial",0.15,0,"R",2.1186,FALSE,8,2704,"Male","unknown.no.rpt","linear-radial coh [.15 .3 .45 .6]",8228,0.15
"1043",2,10,"radial",0.6,0,"L",1.6189,TRUE,2,2704,"Male","unknown.no.rpt","linear-radial coh [.15 .3 .45 .6]",8228,0.6
"1043",1,2,"radial",0,0.15,"R",1.673,TRUE,8,2704,"Male","unknown.no.rpt","linear-radial coh [.15 .3 .45 .6]",8228,0.15
"1043",3,12,"linear",0.3,0,"R",2.27,FALSE,2,2704,"Male","unknown.no.rpt","linear-radial coh [.15 .3 .45 .6]",8228,0.3
"1043",1,5,"linear",0.6,0,"L",1.8439,TRUE,8,2704,"Male","unknown.no.rpt","linear-radial coh [.15 .3 .45 .6]",8228,0.6
"1043",4,12,"linear",0.45,0,"L",1.3407,TRUE,8,2704,"Male","unknown.no.rpt","linear-radial coh [.15 .3 .45 .6]",8228,0.45
"1043",4,16,"linear",0.15,0,"L",5.3881,TRUE,8,2704,"Male","unknown.no.rpt","linear-radial coh [.15 .3 .45 .6]",8228,0.15
"1043",1,16,"linear",0.15,0,"L",2.8558,TRUE,8,2704,"Male","unknown.no.rpt","linear-radial coh [.15 .3 .45 .6]",8228,0.15
"1043",1,12,"radial",0.3,0,"L",3.1537,TRUE,8,2704,"Male","unknown.no.rpt","linear-radial coh [.15 .3 .45 .6]",8228,0.3
"1043",1,8,"linear",0.45,0,"L",4.4536,TRUE,8,2704,"Male","unknown.no.rpt","linear-radial coh [.15 .3 .45 .6]",8228,0.45
"1043",2,5,"linear",0,0.15,"L",1.5179,FALSE,2,2704,"Male","unknown.no.rpt","linear-radial coh [.15 .3 .45 .6]",8228,0.15
"1043",2,16,"linear",0.3,0,"L",3.303,TRUE,2,2704,"Male","unknown.no.rpt","linear-radial coh [.15 .3 .45 .6]",8228,0.3
"1043",1,7,"radial",0,0.3,"R",2.8857,TRUE,8,2704,"Male","unknown.no.rpt","linear-radial coh [.15 .3 .45 .6]",8228,0.3
"1043",4,16,"linear",0.15,0,"R",2.2685,FALSE,8,2704,"Male","unknown.no.rpt","linear-radial coh [.15 .3 .45 .6]",8228,0.15
"1043",1,16,"linear",0.15,0,"R",3.6777,FALSE,8,2704,"Male","unknown.no.rpt","linear-radial coh [.15 .3 .45 .6]",8228,0.15
"1043",2,9,"radial",0,0.3,"R",1.5015,TRUE,2,2704,"Male","unknown.no.rpt","linear-radial coh [.15 .3 .45 .6]",8228,0.3
"1043",3,11,"linear",0.45,0,"R",1.6701,FALSE,2,2704,"Male","unknown.no.rpt","linear-radial coh [.15 .3 .45 .6]",8228,0.45
"1043",4,10,"radial",0.3,0,"L",2.5357,TRUE,8,2704,"Male","unknown.no.rpt","linear-radial coh [.15 .3 .45 .6]",8228,0.3
"1043",1,10,"radial",0.3,0,"L",2.1521,TRUE,8,2704,"Male","unknown.no.rpt","linear-radial coh [.15 .3 .45 .6]",8228,0.3
"1043",2,7,"radial",0.15,0,"R",3.2695,FALSE,2,2704,"Male","unknown.no.rpt","linear-radial coh [.15 .3 .45 .6]",8228,0.15
"1043",2,14,"radial",0,0.6,"R",1.7692,TRUE,2,2704,"Male","unknown.no.rpt","linear-radial coh [.15 .3 .45 .6]",8228,0.6
"1043",2,11,"radial",0,0.45,"R",4.5052,TRUE,2,2704,"Male","unknown.no.rpt","linear-radial coh [.15 .3 .45 .6]",8228,0.45
"1043",4,13,"linear",0.3,0,"L",1.5852,TRUE,8,2704,"Male","unknown.no.rpt","linear-radial coh [.15 .3 .45 .6]",8228,0.3
"1043",4,10,"linear",0,0.3,"R",2.1892,TRUE,8,2704,"Male","unknown.no.rpt","linear-radial coh [.15 .3 .45 .6]",8228,0.3
"1043",2,12,"linear",0.3,0,"L",2.3519,TRUE,2,2704,"Male","unknown.no.rpt","linear-radial coh [.15 .3 .45 .6]",8228,0.3
"1043",1,11,"radial",0.15,0,"L",1.5515,TRUE,8,2704,"Male","unknown.no.rpt","linear-radial coh [.15 .3 .45 .6]",8228,0.15
"1043",1,7,"linear",0,0.45,"R",2.1852,TRUE,8,2704,"Male","unknown.no.rpt","linear-radial coh [.15 .3 .45 .6]",8228,0.45
"1043",1,14,"linear",0.45,0,"L",2.5522,TRUE,8,2704,"Male","unknown.no.rpt","linear-radial coh [.15 .3 .45 .6]",8228,0.45
"1043",2,3,"radial",0.3,0,"L",5.0707,TRUE,2,2704,"Male","unknown.no.rpt","linear-radial coh [.15 .3 .45 .6]",8228,0.3
"1043",4,16,"linear",0.15,0,"R",2.4395,FALSE,8,2704,"Male","unknown.no.rpt","linear-radial coh [.15 .3 .45 .6]",8228,0.15
"1043",3,15,"radial",0,0.45,"R",2.7025,TRUE,2,2704,"Male","unknown.no.rpt","linear-radial coh [.15 .3 .45 .6]",8228,0.45
"1043",3,4,"linear",0,0.45,"R",2.4356,TRUE,2,2704,"Male","unknown.no.rpt","linear-radial coh [.15 .3 .45 .6]",8228,0.45
"1043",2,11,"radial",0.15,0,"R",7.8905,FALSE,2,2704,"Male","unknown.no.rpt","linear-radial coh [.15 .3 .45 .6]",8228,0.15
"1043",4,3,"radial",0,0.45,"R",1.9516,TRUE,8,2704,"Male","unknown.no.rpt","linear-radial coh [.15 .3 .45 .6]",8228,0.45
"1043",1,10,"linear",0.3,0,"L",1.6515,TRUE,8,2704,"Male","unknown.no.rpt","linear-radial coh [.15 .3 .45 .6]",8228,0.3
"1043",3,13,"linear",0,0.3,"R",4.5881,TRUE,2,2704,"Male","unknown.no.rpt","linear-radial coh [.15 .3 .45 .6]",8228,0.3
"1043",1,11,"radial",0,0.3,"R",3.1196,TRUE,8,2704,"Male","unknown.no.rpt","linear-radial coh [.15 .3 .45 .6]",8228,0.3
"1043",2,1,"radial",0,0.15,"R",2.886,TRUE,2,2704,"Male","unknown.no.rpt","linear-radial coh [.15 .3 .45 .6]",8228,0.15
"1043",1,14,"linear",0.45,0,"L",1.6887,TRUE,8,2704,"Male","unknown.no.rpt","linear-radial coh [.15 .3 .45 .6]",8228,0.45
"1043",3,16,"radial",0,0.45,"R",2.2852,TRUE,2,2704,"Male","unknown.no.rpt","linear-radial coh [.15 .3 .45 .6]",8228,0.45
"1043",4,7,"linear",0,0.45,"R",1.2356,TRUE,8,2704,"Male","unknown.no.rpt","linear-radial coh [.15 .3 .45 .6]",8228,0.45
"1043",4,9,"radial",0,0.6,"R",1.0286,TRUE,8,2704,"Male","unknown.no.rpt","linear-radial coh [.15 .3 .45 .6]",8228,0.6
"1043",1,4,"radial",0,0.45,"R",1.5684,TRUE,8,2704,"Male","unknown.no.rpt","linear-radial coh [.15 .3 .45 .6]",8228,0.45
"1043",4,9,"radial",0,0.6,"R",1.1845,TRUE,8,2704,"Male","unknown.no.rpt","linear-radial coh [.15 .3 .45 .6]",8228,0.6
"1043",3,10,"radial",0.3,0,"L",2.2188,TRUE,2,2704,"Male","unknown.no.rpt","linear-radial coh [.15 .3 .45 .6]",8228,0.3
"1043",1,15,"radial",0.3,0,"L",1.6566,TRUE,8,2704,"Male","unknown.no.rpt","linear-radial coh [.15 .3 .45 .6]",8228,0.3
"1043",3,1,"linear",0.6,0,"L",5.2211,TRUE,2,2704,"Male","unknown.no.rpt","linear-radial coh [.15 .3 .45 .6]",8228,0.6
"1043",1,1,"radial",0.6,0,"L",2.005,TRUE,8,2704,"Male","unknown.no.rpt","linear-radial coh [.15 .3 .45 .6]",8228,0.6
"1043",1,12,"linear",0,0.3,"R",2.2189,TRUE,8,2704,"Male","unknown.no.rpt","linear-radial coh [.15 .3 .45 .6]",8228,0.3
"1043",4,11,"linear",0,0.45,"R",5.0875,TRUE,8,2704,"Male","unknown.no.rpt","linear-radial coh [.15 .3 .45 .6]",8228,0.45
"1043",3,15,"radial",0,0.6,"R",2.1686,TRUE,2,2704,"Male","unknown.no.rpt","linear-radial coh [.15 .3 .45 .6]",8228,0.6
"1043",3,3,"radial",0.45,0,"L",1.2343,TRUE,2,2704,"Male","unknown.no.rpt","linear-radial coh [.15 .3 .45 .6]",8228,0.45
"1043",4,3,"linear",0,0.6,"R",1.5851,TRUE,8,2704,"Male","unknown.no.rpt","linear-radial coh [.15 .3 .45 .6]",8228,0.6
"1043",4,13,"linear",0.3,0,"L",1.9686,TRUE,8,2704,"Male","unknown.no.rpt","linear-radial coh [.15 .3 .45 .6]",8228,0.3
"1043",1,14,"radial",0,0.6,"R",4.174,TRUE,8,2704,"Male","unknown.no.rpt","linear-radial coh [.15 .3 .45 .6]",8228,0.6
"1043",3,14,"radial",0,0.3,"R",2.5031,TRUE,2,2704,"Male","unknown.no.rpt","linear-radial coh [.15 .3 .45 .6]",8228,0.3
"1043",1,15,"linear",0,0.15,"R",5.0764,TRUE,8,2704,"Male","unknown.no.rpt","linear-radial coh [.15 .3 .45 .6]",8228,0.15
"1043",4,9,"linear",0,0.3,"R",1.218,TRUE,8,2704,"Male","unknown.no.rpt","linear-radial coh [.15 .3 .45 .6]",8228,0.3
"1043",3,5,"radial",0.3,0,"L",1.3681,TRUE,2,2704,"Male","unknown.no.rpt","linear-radial coh [.15 .3 .45 .6]",8228,0.3
"1043",1,11,"radial",0.3,0,"L",1.8682,TRUE,8,2704,"Male","unknown.no.rpt","linear-radial coh [.15 .3 .45 .6]",8228,0.3
"1043",1,10,"linear",0,0.3,"R",3.6143,TRUE,8,2704,"Male","unknown.no.rpt","linear-radial coh [.15 .3 .45 .6]",8228,0.3
"1043",3,16,"linear",0.3,0,"L",2.936,TRUE,2,2704,"Male","unknown.no.rpt","linear-radial coh [.15 .3 .45 .6]",8228,0.3
"1043",2,2,"radial",0.45,0,"L",1.1942,TRUE,2,2704,"Male","unknown.no.rpt","linear-radial coh [.15 .3 .45 .6]",8228,0.45
"1043",3,6,"linear",0,0.45,"R",1.7778,TRUE,2,2704,"Male","unknown.no.rpt","linear-radial coh [.15 .3 .45 .6]",8228,0.45
"1043",4,6,"linear",0.6,0,"L",1.201,TRUE,8,2704,"Male","unknown.no.rpt","linear-radial coh [.15 .3 .45 .6]",8228,0.6
"1043",1,6,"radial",0,0.3,"R",1.6435,TRUE,8,2704,"Male","unknown.no.rpt","linear-radial coh [.15 .3 .45 .6]",8228,0.3
"1043",2,3,"linear",0.6,0,"R",3.1531,FALSE,2,2704,"Male","unknown.no.rpt","linear-radial coh [.15 .3 .45 .6]",8228,0.6
"1043",3,8,"linear",0.15,0,"L",5.7081,TRUE,2,2704,"Male","unknown.no.rpt","linear-radial coh [.15 .3 .45 .6]",8228,0.15
"1043",2,1,"linear",0.6,0,"L",1.8015,TRUE,2,2704,"Male","unknown.no.rpt","linear-radial coh [.15 .3 .45 .6]",8228,0.6
"1043",1,16,"radial",0.3,0,"L",1.4848,TRUE,8,2704,"Male","unknown.no.rpt","linear-radial coh [.15 .3 .45 .6]",8228,0.3
"1043",3,1,"linear",0.6,0,"L",2.7887,TRUE,2,2704,"Male","unknown.no.rpt","linear-radial coh [.15 .3 .45 .6]",8228,0.6
"1043",1,2,"radial",0.6,0,"L",1.9032,TRUE,8,2704,"Male","unknown.no.rpt","linear-radial coh [.15 .3 .45 .6]",8228,0.6
"1043",2,5,"linear",0.15,0,"R",4.39,FALSE,2,2704,"Male","unknown.no.rpt","linear-radial coh [.15 .3 .45 .6]",8228,0.15
"1043",3,12,"linear",0,0.6,"L",4.304,FALSE,2,2704,"Male","unknown.no.rpt","linear-radial coh [.15 .3 .45 .6]",8228,0.6
"1043",1,2,"linear",0,0.6,"R",2.5856,TRUE,8,2704,"Male","unknown.no.rpt","linear-radial coh [.15 .3 .45 .6]",8228,0.6
"1043",3,15,"radial",0,0.45,"R",4.3702,TRUE,2,2704,"Male","unknown.no.rpt","linear-radial coh [.15 .3 .45 .6]",8228,0.45
"1043",2,8,"linear",0,0.6,"R",1.3012,TRUE,2,2704,"Male","unknown.no.rpt","linear-radial coh [.15 .3 .45 .6]",8228,0.6
"1043",1,8,"radial",0.45,0,"L",1.3679,TRUE,8,2704,"Male","unknown.no.rpt","linear-radial coh [.15 .3 .45 .6]",8228,0.45
"1043",4,5,"linear",0.6,0,"L",1.3177,TRUE,8,2704,"Male","unknown.no.rpt","linear-radial coh [.15 .3 .45 .6]",8228,0.6
"1043",4,8,"linear",0.6,0,"L",2.9026,TRUE,8,2704,"Male","unknown.no.rpt","linear-radial coh [.15 .3 .45 .6]",8228,0.6
"1043",1,5,"linear",0,0.3,"R",2.0352,TRUE,8,2704,"Male","unknown.no.rpt","linear-radial coh [.15 .3 .45 .6]",8228,0.3
"1043",4,4,"radial",0,0.3,"R",1.9285,TRUE,8,2704,"Male","unknown.no.rpt","linear-radial coh [.15 .3 .45 .6]",8228,0.3
"1043",3,2,"linear",0,0.45,"R",2.054,TRUE,2,2704,"Male","unknown.no.rpt","linear-radial coh [.15 .3 .45 .6]",8228,0.45
"1043",1,7,"radial",0,0.6,"R",1.487,TRUE,8,2704,"Male","unknown.no.rpt","linear-radial coh [.15 .3 .45 .6]",8228,0.6
"1043",4,1,"linear",0,0.6,"R",7.2061,TRUE,8,2704,"Male","unknown.no.rpt","linear-radial coh [.15 .3 .45 .6]",8228,0.6
"1043",2,3,"radial",0.45,0,"L",1.8435,TRUE,2,2704,"Male","unknown.no.rpt","linear-radial coh [.15 .3 .45 .6]",8228,0.45
"1043",2,6,"linear",0,0.45,"R",3.203,TRUE,2,2704,"Male","unknown.no.rpt","linear-radial coh [.15 .3 .45 .6]",8228,0.45
"1043",1,11,"linear",0,0.45,"R",2.5571,TRUE,8,2704,"Male","unknown.no.rpt","linear-radial coh [.15 .3 .45 .6]",8228,0.45
"1043",1,6,"linear",0.3,0,"L",3.3199,TRUE,8,2704,"Male","unknown.no.rpt","linear-radial coh [.15 .3 .45 .6]",8228,0.3
"1043",4,13,"linear",0.15,0,"R",4.2703,FALSE,8,2704,"Male","unknown.no.rpt","linear-radial coh [.15 .3 .45 .6]",8228,0.15
"1043",1,5,"linear",0.6,0,"L",1.6564,TRUE,8,2704,"Male","unknown.no.rpt","linear-radial coh [.15 .3 .45 .6]",8228,0.6
"1043",3,10,"linear",0,0.15,"L",1.8353,FALSE,2,2704,"Male","unknown.no.rpt","linear-radial coh [.15 .3 .45 .6]",8228,0.15
"1043",2,12,"radial",0,0.6,"L",4.6875,FALSE,2,2704,"Male","unknown.no.rpt","linear-radial coh [.15 .3 .45 .6]",8228,0.6
"1043",3,11,"linear",0.45,0,"R",3.1358,FALSE,2,2704,"Male","unknown.no.rpt","linear-radial coh [.15 .3 .45 .6]",8228,0.45
"1043",4,1,"radial",0.6,0,"L",4.4421,TRUE,8,2704,"Male","unknown.no.rpt","linear-radial coh [.15 .3 .45 .6]",8228,0.6
"1043",4,16,"linear",0.15,0,"L",3.0027,TRUE,8,2704,"Male","unknown.no.rpt","linear-radial coh [.15 .3 .45 .6]",8228,0.15
"1043",4,11,"radial",0.3,0,"L",1.1848,TRUE,8,2704,"Male","unknown.no.rpt","linear-radial coh [.15 .3 .45 .6]",8228,0.3
"1043",1,4,"radial",0,0.3,"R",1.3013,TRUE,8,2704,"Male","unknown.no.rpt","linear-radial coh [.15 .3 .45 .6]",8228,0.3
"1043",3,3,"radial",0,0.15,"R",1.779,TRUE,2,2704,"Male","unknown.no.rpt","linear-radial coh [.15 .3 .45 .6]",8228,0.15
"1043",3,16,"linear",0.3,0,"L",1.9944,TRUE,2,2704,"Male","unknown.no.rpt","linear-radial coh [.15 .3 .45 .6]",8228,0.3
"1043",4,5,"linear",0,0.3,"R",9.3411,TRUE,8,2704,"Male","unknown.no.rpt","linear-radial coh [.15 .3 .45 .6]",8228,0.3
"1043",3,10,"radial",0,0.6,"R",3.2029,TRUE,2,2704,"Male","unknown.no.rpt","linear-radial coh [.15 .3 .45 .6]",8228,0.6
"1043",3,14,"radial",0,0.6,"L",6.0083,FALSE,2,2704,"Male","unknown.no.rpt","linear-radial coh [.15 .3 .45 .6]",8228,0.6
"1043",1,5,"radial",0,0.3,"R",1.3368,TRUE,8,2704,"Male","unknown.no.rpt","linear-radial coh [.15 .3 .45 .6]",8228,0.3
"1043",3,11,"radial",0.15,0,"L",2.6054,TRUE,2,2704,"Male","unknown.no.rpt","linear-radial coh [.15 .3 .45 .6]",8228,0.15
"1043",2,5,"radial",0.15,0,"L",5.9288,TRUE,2,2704,"Male","unknown.no.rpt","linear-radial coh [.15 .3 .45 .6]",8228,0.15
"1043",1,2,"radial",0.6,0,"L",1.5527,TRUE,8,2704,"Male","unknown.no.rpt","linear-radial coh [.15 .3 .45 .6]",8228,0.6
"1043",1,16,"linear",0.15,0,"L",4.7375,TRUE,8,2704,"Male","unknown.no.rpt","linear-radial coh [.15 .3 .45 .6]",8228,0.15
"1043",3,5,"linear",0,0.15,"R",1.8458,TRUE,2,2704,"Male","unknown.no.rpt","linear-radial coh [.15 .3 .45 .6]",8228,0.15
"1043",3,5,"radial",0.15,0,"L",3.7915,TRUE,2,2704,"Male","unknown.no.rpt","linear-radial coh [.15 .3 .45 .6]",8228,0.15
"1043",2,3,"radial",0,0.15,"R",1.418,TRUE,2,2704,"Male","unknown.no.rpt","linear-radial coh [.15 .3 .45 .6]",8228,0.15
"1043",3,4,"linear",0.6,0,"L",1.535,TRUE,2,2704,"Male","unknown.no.rpt","linear-radial coh [.15 .3 .45 .6]",8228,0.6
"1043",3,5,"radial",0.15,0,"L",2.5191,TRUE,2,2704,"Male","unknown.no.rpt","linear-radial coh [.15 .3 .45 .6]",8228,0.15
"1043",2,5,"radial",0.3,0,"L",1.1506,TRUE,2,2704,"Male","unknown.no.rpt","linear-radial coh [.15 .3 .45 .6]",8228,0.3
"1043",1,12,"radial",0.45,0,"L",1.7687,TRUE,8,2704,"Male","unknown.no.rpt","linear-radial coh [.15 .3 .45 .6]",8228,0.45
"1043",1,9,"radial",0,0.45,"R",2.1352,TRUE,8,2704,"Male","unknown.no.rpt","linear-radial coh [.15 .3 .45 .6]",8228,0.45
"1043",4,1,"linear",0,0.6,"R",1.8516,TRUE,8,2704,"Male","unknown.no.rpt","linear-radial coh [.15 .3 .45 .6]",8228,0.6
"1043",2,7,"linear",0.45,0,"L",5.0878,TRUE,2,2704,"Male","unknown.no.rpt","linear-radial coh [.15 .3 .45 .6]",8228,0.45
"1043",4,1,"radial",0.6,0,"L",1.5852,TRUE,8,2704,"Male","unknown.no.rpt","linear-radial coh [.15 .3 .45 .6]",8228,0.6
"1043",4,5,"linear",0.6,0,"L",1.4919,TRUE,8,2704,"Male","unknown.no.rpt","linear-radial coh [.15 .3 .45 .6]",8228,0.6
"1043",4,7,"radial",0,0.6,"R",2.0019,TRUE,8,2704,"Male","unknown.no.rpt","linear-radial coh [.15 .3 .45 .6]",8228,0.6
"1043",1,16,"linear",0.15,0,"L",7.5562,TRUE,8,2704,"Male","unknown.no.rpt","linear-radial coh [.15 .3 .45 .6]",8228,0.15
"1043",4,15,"linear",0,0.15,"L",6.0434,FALSE,8,2704,"Male","unknown.no.rpt","linear-radial coh [.15 .3 .45 .6]",8228,0.15
"1043",3,2,"radial",0.45,0,"L",1.4525,TRUE,2,2704,"Male","unknown.no.rpt","linear-radial coh [.15 .3 .45 .6]",8228,0.45
"1043",3,8,"linear",0.15,0,"L",2.8023,TRUE,2,2704,"Male","unknown.no.rpt","linear-radial coh [.15 .3 .45 .6]",8228,0.15
"1043",4,11,"radial",0,0.6,"R",1.2342,TRUE,8,2704,"Male","unknown.no.rpt","linear-radial coh [.15 .3 .45 .6]",8228,0.6
"1043",3,9,"linear",0.45,0,"L",1.7848,TRUE,2,2704,"Male","unknown.no.rpt","linear-radial coh [.15 .3 .45 .6]",8228,0.45
"1043",3,14,"linear",0,0.3,"R",3.0864,TRUE,2,2704,"Male","unknown.no.rpt","linear-radial coh [.15 .3 .45 .6]",8228,0.3
"1043",2,15,"linear",0,0.3,"R",1.4356,TRUE,2,2704,"Male","unknown.no.rpt","linear-radial coh [.15 .3 .45 .6]",8228,0.3
"1043",1,8,"linear",0.6,0,"L",1.5396,TRUE,8,2704,"Male","unknown.no.rpt","linear-radial coh [.15 .3 .45 .6]",8228,0.6
"1043",2,4,"radial",0.3,0,"L",1.7575,TRUE,2,2704,"Male","unknown.no.rpt","linear-radial coh [.15 .3 .45 .6]",8228,0.3
"1043",1,13,"linear",0.3,0,"L",5.1707,TRUE,8,2704,"Male","unknown.no.rpt","linear-radial coh [.15 .3 .45 .6]",8228,0.3
"1043",2,15,"linear",0.3,0,"L",4.1428,TRUE,2,2704,"Male","unknown.no.rpt","linear-radial coh [.15 .3 .45 .6]",8228,0.3
"1043",4,2,"radial",0.6,0,"L",1.7515,TRUE,8,2704,"Male","unknown.no.rpt","linear-radial coh [.15 .3 .45 .6]",8228,0.6
"1043",4,11,"radial",0.15,0,"R",3.2861,FALSE,8,2704,"Male","unknown.no.rpt","linear-radial coh [.15 .3 .45 .6]",8228,0.15
"1043",2,14,"radial",0,0.3,"R",5.1547,TRUE,2,2704,"Male","unknown.no.rpt","linear-radial coh [.15 .3 .45 .6]",8228,0.3
"1043",2,1,"linear",0.6,0,"L",3.289,TRUE,2,2704,"Male","unknown.no.rpt","linear-radial coh [.15 .3 .45 .6]",8228,0.6
"1043",2,5,"radial",0.15,0,"L",4.3872,TRUE,2,2704,"Male","unknown.no.rpt","linear-radial coh [.15 .3 .45 .6]",8228,0.15
"1043",4,2,"linear",0,0.6,"R",3.1381,TRUE,8,2704,"Male","unknown.no.rpt","linear-radial coh [.15 .3 .45 .6]",8228,0.6
"1043",2,12,"linear",0,0.6,"R",3.1028,TRUE,2,2704,"Male","unknown.no.rpt","linear-radial coh [.15 .3 .45 .6]",8228,0.6
"1043",4,1,"radial",0.6,0,"L",1.5387,TRUE,8,2704,"Male","unknown.no.rpt","linear-radial coh [.15 .3 .45 .6]",8228,0.6
"1043",3,6,"radial",0.3,0,"L",1.456,TRUE,2,2704,"Male","unknown.no.rpt","linear-radial coh [.15 .3 .45 .6]",8228,0.3
"1043",3,9,"radial",0,0.3,"L",2.9191,FALSE,2,2704,"Male","unknown.no.rpt","linear-radial coh [.15 .3 .45 .6]",8228,0.3
"1043",2,15,"radial",0,0.45,"R",1.3014,TRUE,2,2704,"Male","unknown.no.rpt","linear-radial coh [.15 .3 .45 .6]",8228,0.45
"1043",1,13,"linear",0.3,0,"L",3.3737,TRUE,8,2704,"Male","unknown.no.rpt","linear-radial coh [.15 .3 .45 .6]",8228,0.3
"1043",3,14,"linear",0,0.3,"R",7.6732,TRUE,2,2704,"Male","unknown.no.rpt","linear-radial coh [.15 .3 .45 .6]",8228,0.3
"1043",1,4,"radial",0,0.45,"R",1.8865,TRUE,8,2704,"Male","unknown.no.rpt","linear-radial coh [.15 .3 .45 .6]",8228,0.45
"1043",1,4,"radial",0,0.45,"R",1.8685,TRUE,8,2704,"Male","unknown.no.rpt","linear-radial coh [.15 .3 .45 .6]",8228,0.45
"1043",2,2,"radial",0,0.15,"R",2.3187,TRUE,2,2704,"Male","unknown.no.rpt","linear-radial coh [.15 .3 .45 .6]",8228,0.15
"1043",2,1,"radial",0,0.15,"L",2.2687,FALSE,2,2704,"Male","unknown.no.rpt","linear-radial coh [.15 .3 .45 .6]",8228,0.15
"1043",3,4,"radial",0.3,0,"L",1.4683,TRUE,2,2704,"Male","unknown.no.rpt","linear-radial coh [.15 .3 .45 .6]",8228,0.3
"1043",2,3,"radial",0.45,0,"L",1.8348,TRUE,2,2704,"Male","unknown.no.rpt","linear-radial coh [.15 .3 .45 .6]",8228,0.45
"1043",3,13,"linear",0,0.6," ",0,FALSE,2,2704,"Male","unknown.no.rpt","linear-radial coh [.15 .3 .45 .6]",8228,0.6
"1043",3,7,"linear",0.45,0,"R",5.0212,FALSE,2,2704,"Male","unknown.no.rpt","linear-radial coh [.15 .3 .45 .6]",8228,0.45
"1043",3,15,"linear",0.3,0,"L",2.5024,TRUE,2,2704,"Male","unknown.no.rpt","linear-radial coh [.15 .3 .45 .6]",8228,0.3
"1043",1,14,"linear",0.45,0,"L",5.4549,TRUE,8,2704,"Male","unknown.no.rpt","linear-radial coh [.15 .3 .45 .6]",8228,0.45
"1043",2,8,"linear",0.15,0,"L",2.3355,TRUE,2,2704,"Male","unknown.no.rpt","linear-radial coh [.15 .3 .45 .6]",8228,0.15
"1043",4,2,"radial",0.6,0,"L",3.1859,TRUE,8,2704,"Male","unknown.no.rpt","linear-radial coh [.15 .3 .45 .6]",8228,0.6
"1043",2,8,"linear",0,0.15,"L",3.1035,FALSE,2,2704,"Male","unknown.no.rpt","linear-radial coh [.15 .3 .45 .6]",8228,0.15
"1043",1,7,"linear",0,0.45,"R",2.919,TRUE,8,2704,"Male","unknown.no.rpt","linear-radial coh [.15 .3 .45 .6]",8228,0.45
"1043",3,6,"radial",0.6,0,"L",1.4013,TRUE,2,2704,"Male","unknown.no.rpt","linear-radial coh [.15 .3 .45 .6]",8228,0.6
"1043",4,6,"linear",0.3,0,"L",2.5544,TRUE,8,2704,"Male","unknown.no.rpt","linear-radial coh [.15 .3 .45 .6]",8228,0.3
"1043",2,1,"linear",0.6,0,"L",5.6548,TRUE,2,2704,"Male","unknown.no.rpt","linear-radial coh [.15 .3 .45 .6]",8228,0.6
"1043",4,15,"radial",0.3,0,"L",7.6579,TRUE,8,2704,"Male","unknown.no.rpt","linear-radial coh [.15 .3 .45 .6]",8228,0.3
"1043",3,8,"linear",0.15,0," ",0,FALSE,2,2704,"Male","unknown.no.rpt","linear-radial coh [.15 .3 .45 .6]",8228,0.15
"1043",2,11,"linear",0.45,0,"L",4.1702,TRUE,2,2704,"Male","unknown.no.rpt","linear-radial coh [.15 .3 .45 .6]",8228,0.45
"1043",1,13,"linear",0.15,0,"R",9.6582,FALSE,8,2704,"Male","unknown.no.rpt","linear-radial coh [.15 .3 .45 .6]",8228,0.15
"1043",4,14,"linear",0.45,0,"L",1.2848,TRUE,8,2704,"Male","unknown.no.rpt","linear-radial coh [.15 .3 .45 .6]",8228,0.45
"1043",2,12,"linear",0,0.15,"L",6.7557,FALSE,2,2704,"Male","unknown.no.rpt","linear-radial coh [.15 .3 .45 .6]",8228,0.15
"1055",2,3,"radial",0,0.2,"L",3.3527,FALSE,2,2259,"Female","unknown.no.rpt","linear-radial coh [.2 .4 .6 .8]",8282,0.2
"1055",3,12,"radial",0,0.4,"R",1.6182,TRUE,8,2259,"Female","unknown.no.rpt","linear-radial coh [.2 .4 .6 .8]",8282,0.4
"1055",4,9,"radial",0,0.8,"R",1.2844,TRUE,2,2259,"Female","unknown.no.rpt","linear-radial coh [.2 .4 .6 .8]",8282,0.8
"1055",3,3,"radial",0,0.6,"R",1.6346,TRUE,8,2259,"Female","unknown.no.rpt","linear-radial coh [.2 .4 .6 .8]",8282,0.6
"1055",3,15,"linear",0,0.2,"L",5.1376,FALSE,8,2259,"Female","unknown.no.rpt","linear-radial coh [.2 .4 .6 .8]",8282,0.2
"1055",1,6,"radial",0.8,0,"L",1.7849,TRUE,8,2259,"Female","unknown.no.rpt","linear-radial coh [.2 .4 .6 .8]",8282,0.8
"1055",3,10,"linear",0.6,0,"L",1.3197,TRUE,8,2259,"Female","unknown.no.rpt","linear-radial coh [.2 .4 .6 .8]",8282,0.6
"1055",4,1,"radial",0.4,0,"L",1.302,TRUE,2,2259,"Female","unknown.no.rpt","linear-radial coh [.2 .4 .6 .8]",8282,0.4
"1055",3,10,"radial",0,0.2,"L",6.2054,FALSE,8,2259,"Female","unknown.no.rpt","linear-radial coh [.2 .4 .6 .8]",8282,0.2
"1055",2,8,"radial",0,0.8,"R",2.3902,TRUE,2,2259,"Female","unknown.no.rpt","linear-radial coh [.2 .4 .6 .8]",8282,0.8
"1055",2,11,"radial",0,0.6,"R",1.7357,TRUE,2,2259,"Female","unknown.no.rpt","linear-radial coh [.2 .4 .6 .8]",8282,0.6
"1055",2,4,"radial",0,0.4,"R",2.9436,TRUE,2,2259,"Female","unknown.no.rpt","linear-radial coh [.2 .4 .6 .8]",8282,0.4
"1055",3,6,"radial",0.8,0,"L",1.201,TRUE,8,2259,"Female","unknown.no.rpt","linear-radial coh [.2 .4 .6 .8]",8282,0.8
"1055",4,13,"linear",0,0.2,"L",4.5892,FALSE,2,2259,"Female","unknown.no.rpt","linear-radial coh [.2 .4 .6 .8]",8282,0.2
"1055",1,9,"linear",0.8,0,"L",3.5032,TRUE,8,2259,"Female","unknown.no.rpt","linear-radial coh [.2 .4 .6 .8]",8282,0.8
"1055",3,11,"radial",0.2,0,"L",1.2553,TRUE,8,2259,"Female","unknown.no.rpt","linear-radial coh [.2 .4 .6 .8]",8282,0.2
"1055",3,11,"linear",0.8,0,"L",2.2352,TRUE,8,2259,"Female","unknown.no.rpt","linear-radial coh [.2 .4 .6 .8]",8282,0.8
"1055",3,15,"linear",0,0.2,"R",2.9027,TRUE,8,2259,"Female","unknown.no.rpt","linear-radial coh [.2 .4 .6 .8]",8282,0.2
"1055",4,2,"radial",0,0.4,"R",1.3841,TRUE,2,2259,"Female","unknown.no.rpt","linear-radial coh [.2 .4 .6 .8]",8282,0.4
"1055",3,12,"radial",0,0.4,"R",1.7024,TRUE,8,2259,"Female","unknown.no.rpt","linear-radial coh [.2 .4 .6 .8]",8282,0.4
"1055",4,1,"radial",0.4,0,"L",2.0538,TRUE,2,2259,"Female","unknown.no.rpt","linear-radial coh [.2 .4 .6 .8]",8282,0.4
"1055",1,12,"linear",0,0.6,"R",1.752,TRUE,8,2259,"Female","unknown.no.rpt","linear-radial coh [.2 .4 .6 .8]",8282,0.6
"1055",1,1,"linear",0,0.8,"R",4.6711,TRUE,8,2259,"Female","unknown.no.rpt","linear-radial coh [.2 .4 .6 .8]",8282,0.8
"1055",1,12,"radial",0,0.4,"R",1.6023,TRUE,8,2259,"Female","unknown.no.rpt","linear-radial coh [.2 .4 .6 .8]",8282,0.4
"1055",3,1,"radial",0,0.8,"R",1.5682,TRUE,8,2259,"Female","unknown.no.rpt","linear-radial coh [.2 .4 .6 .8]",8282,0.8
"1055",3,14,"radial",0,0.2,"R",1.4678,TRUE,8,2259,"Female","unknown.no.rpt","linear-radial coh [.2 .4 .6 .8]",8282,0.2
"1055",3,7,"linear",0,0.6,"R",2.0854,TRUE,8,2259,"Female","unknown.no.rpt","linear-radial coh [.2 .4 .6 .8]",8282,0.6
"1055",2,3,"radial",0.4,0,"L",2.0538,TRUE,2,2259,"Female","unknown.no.rpt","linear-radial coh [.2 .4 .6 .8]",8282,0.4
"1055",1,3,"radial",0,0.6,"R",1.0676,TRUE,8,2259,"Female","unknown.no.rpt","linear-radial coh [.2 .4 .6 .8]",8282,0.6
"1055",3,7,"linear",0.4,0,"L",1.6855,TRUE,8,2259,"Female","unknown.no.rpt","linear-radial coh [.2 .4 .6 .8]",8282,0.4
"1055",2,15,"linear",0.2,0,"L",3.4692,TRUE,2,2259,"Female","unknown.no.rpt","linear-radial coh [.2 .4 .6 .8]",8282,0.2
"1055",2,5,"linear",0.6,0,"L",2.1186,TRUE,2,2259,"Female","unknown.no.rpt","linear-radial coh [.2 .4 .6 .8]",8282,0.6
"1055",4,16,"radial",0,0.6,"R",1.7592,TRUE,2,2259,"Female","unknown.no.rpt","linear-radial coh [.2 .4 .6 .8]",8282,0.6
"1055",2,10,"radial",0,0.6,"R",2.4042,TRUE,2,2259,"Female","unknown.no.rpt","linear-radial coh [.2 .4 .6 .8]",8282,0.6
"1055",3,10,"linear",0.6,0,"L",1.8049,TRUE,8,2259,"Female","unknown.no.rpt","linear-radial coh [.2 .4 .6 .8]",8282,0.6
"1055",4,2,"radial",0,0.4,"R",1.1189,TRUE,2,2259,"Female","unknown.no.rpt","linear-radial coh [.2 .4 .6 .8]",8282,0.4
"1055",2,3,"radial",0,0.4,"R",1.8391,TRUE,2,2259,"Female","unknown.no.rpt","linear-radial coh [.2 .4 .6 .8]",8282,0.4
"1055",4,13,"linear",0,0.2,"R",2.2392,TRUE,2,2259,"Female","unknown.no.rpt","linear-radial coh [.2 .4 .6 .8]",8282,0.2
"1055",1,8,"linear",0,0.6,"R",3.154,TRUE,8,2259,"Female","unknown.no.rpt","linear-radial coh [.2 .4 .6 .8]",8282,0.6
"1055",4,2,"radial",0.4,0,"L",1.3513,TRUE,2,2259,"Female","unknown.no.rpt","linear-radial coh [.2 .4 .6 .8]",8282,0.4
"1055",3,5,"linear",0.4,0,"L",3.0024,TRUE,8,2259,"Female","unknown.no.rpt","linear-radial coh [.2 .4 .6 .8]",8282,0.4
"1055",1,2,"radial",0,0.6,"R",1.4511,TRUE,8,2259,"Female","unknown.no.rpt","linear-radial coh [.2 .4 .6 .8]",8282,0.6
"1055",2,10,"linear",0,0.6,"R",2.1521,TRUE,2,2259,"Female","unknown.no.rpt","linear-radial coh [.2 .4 .6 .8]",8282,0.6
"1055",3,1,"radial",0,0.8,"R",1.7185,TRUE,8,2259,"Female","unknown.no.rpt","linear-radial coh [.2 .4 .6 .8]",8282,0.8
"1055",2,3,"radial",0,0.4,"R",3.3576,TRUE,2,2259,"Female","unknown.no.rpt","linear-radial coh [.2 .4 .6 .8]",8282,0.4
"1055",1,1,"linear",0,0.8,"R",2.1853,TRUE,8,2259,"Female","unknown.no.rpt","linear-radial coh [.2 .4 .6 .8]",8282,0.8
"1055",3,4,"linear",0,0.4,"R",1.3348,TRUE,8,2259,"Female","unknown.no.rpt","linear-radial coh [.2 .4 .6 .8]",8282,0.4
"1055",1,2,"radial",0,0.6,"R",1.1185,TRUE,8,2259,"Female","unknown.no.rpt","linear-radial coh [.2 .4 .6 .8]",8282,0.6
"1055",2,16,"linear",0,0.6,"R",1.8684,TRUE,2,2259,"Female","unknown.no.rpt","linear-radial coh [.2 .4 .6 .8]",8282,0.6
"1055",3,13,"linear",0,0.2,"R",3.2425,TRUE,8,2259,"Female","unknown.no.rpt","linear-radial coh [.2 .4 .6 .8]",8282,0.2
"1055",3,12,"radial",0,0.2,"R",1.8518,TRUE,8,2259,"Female","unknown.no.rpt","linear-radial coh [.2 .4 .6 .8]",8282,0.2
"1055",2,8,"radial",0.2,0,"R",6.9116,FALSE,2,2259,"Female","unknown.no.rpt","linear-radial coh [.2 .4 .6 .8]",8282,0.2
"1055",1,1,"linear",0,0.8,"R",1.8517,TRUE,8,2259,"Female","unknown.no.rpt","linear-radial coh [.2 .4 .6 .8]",8282,0.8
"1055",3,8,"radial",0.2,0,"L",1.2009,TRUE,8,2259,"Female","unknown.no.rpt","linear-radial coh [.2 .4 .6 .8]",8282,0.2
"1055",2,12,"linear",0.4,0,"R",4.1536,FALSE,2,2259,"Female","unknown.no.rpt","linear-radial coh [.2 .4 .6 .8]",8282,0.4
"1055",1,6,"radial",0.8,0,"L",1.4011,TRUE,8,2259,"Female","unknown.no.rpt","linear-radial coh [.2 .4 .6 .8]",8282,0.8
"1055",2,5,"linear",0.6,0,"L",2.3024,TRUE,2,2259,"Female","unknown.no.rpt","linear-radial coh [.2 .4 .6 .8]",8282,0.6
"1055",1,2,"linear",0,0.4,"R",2.973,TRUE,8,2259,"Female","unknown.no.rpt","linear-radial coh [.2 .4 .6 .8]",8282,0.4
"1055",1,16,"linear",0.2,0," ",0,FALSE,8,2259,"Female","unknown.no.rpt","linear-radial coh [.2 .4 .6 .8]",8282,0.2
"1055",2,7,"radial",0.6,0,"L",2.102,TRUE,2,2259,"Female","unknown.no.rpt","linear-radial coh [.2 .4 .6 .8]",8282,0.6
"1055",3,11,"radial",0.2,0,"L",1.9519,TRUE,8,2259,"Female","unknown.no.rpt","linear-radial coh [.2 .4 .6 .8]",8282,0.2
"1055",3,16,"linear",0.2,0,"L",1.6873,TRUE,8,2259,"Female","unknown.no.rpt","linear-radial coh [.2 .4 .6 .8]",8282,0.2
"1055",3,15,"linear",0,0.2,"L",2.586,FALSE,8,2259,"Female","unknown.no.rpt","linear-radial coh [.2 .4 .6 .8]",8282,0.2
"1055",4,5,"linear",0.6,0,"L",1.7352,TRUE,2,2259,"Female","unknown.no.rpt","linear-radial coh [.2 .4 .6 .8]",8282,0.6
"1055",1,13,"linear",0,0.2," ",0,FALSE,8,2259,"Female","unknown.no.rpt","linear-radial coh [.2 .4 .6 .8]",8282,0.2
"1055",4,11,"linear",0.6,0,"L",1.1844,TRUE,2,2259,"Female","unknown.no.rpt","linear-radial coh [.2 .4 .6 .8]",8282,0.6
"1055",3,6,"radial",0.8,0,"L",1.1346,TRUE,8,2259,"Female","unknown.no.rpt","linear-radial coh [.2 .4 .6 .8]",8282,0.8
"1055",1,16,"linear",0.2,0,"R",4.7942,FALSE,8,2259,"Female","unknown.no.rpt","linear-radial coh [.2 .4 .6 .8]",8282,0.2
"1055",2,12,"linear",0.4,0,"L",2.6525,TRUE,2,2259,"Female","unknown.no.rpt","linear-radial coh [.2 .4 .6 .8]",8282,0.4
"1055",1,12,"linear",0,0.6,"R",1.8514,TRUE,8,2259,"Female","unknown.no.rpt","linear-radial coh [.2 .4 .6 .8]",8282,0.6
"1055",2,10,"linear",0,0.4,"R",2.3403,TRUE,2,2259,"Female","unknown.no.rpt","linear-radial coh [.2 .4 .6 .8]",8282,0.4
"1055",3,4,"linear",0,0.4,"R",2.1519,TRUE,8,2259,"Female","unknown.no.rpt","linear-radial coh [.2 .4 .6 .8]",8282,0.4
"1055",4,9,"linear",0,0.2,"L",1.8024,FALSE,2,2259,"Female","unknown.no.rpt","linear-radial coh [.2 .4 .6 .8]",8282,0.2
"1055",1,7,"radial",0.8,0,"L",1.2516,TRUE,8,2259,"Female","unknown.no.rpt","linear-radial coh [.2 .4 .6 .8]",8282,0.8
"1055",3,3,"radial",0.6,0,"L",1.6349,TRUE,8,2259,"Female","unknown.no.rpt","linear-radial coh [.2 .4 .6 .8]",8282,0.6
"1055",4,2,"radial",0.4,0,"L",1.5348,TRUE,2,2259,"Female","unknown.no.rpt","linear-radial coh [.2 .4 .6 .8]",8282,0.4
"1055",3,4,"radial",0,0.6,"R",1.8448,TRUE,8,2259,"Female","unknown.no.rpt","linear-radial coh [.2 .4 .6 .8]",8282,0.6
"1055",1,13,"radial",0,0.2,"R",2.1689,TRUE,8,2259,"Female","unknown.no.rpt","linear-radial coh [.2 .4 .6 .8]",8282,0.2
"1055",1,1,"radial",0,0.8,"R",1.4346,TRUE,8,2259,"Female","unknown.no.rpt","linear-radial coh [.2 .4 .6 .8]",8282,0.8
"1055",2,4,"linear",0.8,0,"L",1.4878,TRUE,2,2259,"Female","unknown.no.rpt","linear-radial coh [.2 .4 .6 .8]",8282,0.8
"1055",2,7,"linear",0,0.2,"R",3.5366,TRUE,2,2259,"Female","unknown.no.rpt","linear-radial coh [.2 .4 .6 .8]",8282,0.2
"1055",2,12,"linear",0.4,0,"L",3.0026,TRUE,2,2259,"Female","unknown.no.rpt","linear-radial coh [.2 .4 .6 .8]",8282,0.4
"1055",4,12,"linear",0.2,0,"R",5.0546,FALSE,2,2259,"Female","unknown.no.rpt","linear-radial coh [.2 .4 .6 .8]",8282,0.2
"1055",4,7,"radial",0,0.2,"R",2.9026,TRUE,2,2259,"Female","unknown.no.rpt","linear-radial coh [.2 .4 .6 .8]",8282,0.2
"1055",4,16,"radial",0,0.6,"R",1.1681,TRUE,2,2259,"Female","unknown.no.rpt","linear-radial coh [.2 .4 .6 .8]",8282,0.6
"1055",4,13,"radial",0.6,0,"L",1.4431,TRUE,2,2259,"Female","unknown.no.rpt","linear-radial coh [.2 .4 .6 .8]",8282,0.6
"1055",1,5,"linear",0,0.4,"R",1.835,TRUE,8,2259,"Female","unknown.no.rpt","linear-radial coh [.2 .4 .6 .8]",8282,0.4
"1055",1,3,"linear",0,0.8,"R",0.80107,TRUE,8,2259,"Female","unknown.no.rpt","linear-radial coh [.2 .4 .6 .8]",8282,0.8
"1055",4,6,"radial",0.6,0,"L",1.3368,TRUE,2,2259,"Female","unknown.no.rpt","linear-radial coh [.2 .4 .6 .8]",8282,0.6
"1055",4,12,"linear",0.4,0,"R",2.4061,FALSE,2,2259,"Female","unknown.no.rpt","linear-radial coh [.2 .4 .6 .8]",8282,0.4
"1055",1,11,"radial",0.4,0,"L",1.7185,TRUE,8,2259,"Female","unknown.no.rpt","linear-radial coh [.2 .4 .6 .8]",8282,0.4
"1055",4,7,"radial",0,0.8,"R",1.1011,TRUE,2,2259,"Female","unknown.no.rpt","linear-radial coh [.2 .4 .6 .8]",8282,0.8
"1055",1,14,"radial",0,0.2,"R",2.9368,TRUE,8,2259,"Female","unknown.no.rpt","linear-radial coh [.2 .4 .6 .8]",8282,0.2
"1055",4,3,"linear",0,0.8,"R",1.0678,TRUE,2,2259,"Female","unknown.no.rpt","linear-radial coh [.2 .4 .6 .8]",8282,0.8
"1055",1,4,"linear",0,0.8,"R",1.7513,TRUE,8,2259,"Female","unknown.no.rpt","linear-radial coh [.2 .4 .6 .8]",8282,0.8
"1055",2,9,"linear",0.2,0,"L",3.5029,TRUE,2,2259,"Female","unknown.no.rpt","linear-radial coh [.2 .4 .6 .8]",8282,0.2
"1055",1,16,"linear",0.2,0,"L",1.5069,TRUE,8,2259,"Female","unknown.no.rpt","linear-radial coh [.2 .4 .6 .8]",8282,0.2
"1055",3,8,"linear",0.8,0,"L",1.6185,TRUE,8,2259,"Female","unknown.no.rpt","linear-radial coh [.2 .4 .6 .8]",8282,0.8
"1055",4,7,"linear",0.8,0,"L",1.4386,TRUE,2,2259,"Female","unknown.no.rpt","linear-radial coh [.2 .4 .6 .8]",8282,0.8
"1055",4,5,"radial",0,0.2,"R",3.4364,TRUE,2,2259,"Female","unknown.no.rpt","linear-radial coh [.2 .4 .6 .8]",8282,0.2
"1055",3,1,"linear",0,0.8,"R",2.2215,TRUE,8,2259,"Female","unknown.no.rpt","linear-radial coh [.2 .4 .6 .8]",8282,0.8
"1055",1,8,"radial",0.2,0,"L",3.7366,TRUE,8,2259,"Female","unknown.no.rpt","linear-radial coh [.2 .4 .6 .8]",8282,0.2
"1055",3,16,"linear",0.2,0,"L",1.7513,TRUE,8,2259,"Female","unknown.no.rpt","linear-radial coh [.2 .4 .6 .8]",8282,0.2
"1055",3,2,"radial",0,0.8,"R",1.6857,TRUE,8,2259,"Female","unknown.no.rpt","linear-radial coh [.2 .4 .6 .8]",8282,0.8
"1055",3,14,"linear",0.6,0,"L",1.6013,TRUE,8,2259,"Female","unknown.no.rpt","linear-radial coh [.2 .4 .6 .8]",8282,0.6
"1055",2,6,"radial",0.8,0,"L",1.6847,TRUE,2,2259,"Female","unknown.no.rpt","linear-radial coh [.2 .4 .6 .8]",8282,0.8
"1055",4,11,"radial",0,0.6,"R",1.0844,TRUE,2,2259,"Female","unknown.no.rpt","linear-radial coh [.2 .4 .6 .8]",8282,0.6
"1055",2,6,"linear",0.4,0,"L",6.1424,TRUE,2,2259,"Female","unknown.no.rpt","linear-radial coh [.2 .4 .6 .8]",8282,0.4
"1055",3,6,"linear",0.4,0,"L",1.5286,TRUE,8,2259,"Female","unknown.no.rpt","linear-radial coh [.2 .4 .6 .8]",8282,0.4
"1055",4,8,"radial",0.8,0,"L",1.8184,TRUE,2,2259,"Female","unknown.no.rpt","linear-radial coh [.2 .4 .6 .8]",8282,0.8
"1055",4,13,"linear",0,0.2,"L",1.785,FALSE,2,2259,"Female","unknown.no.rpt","linear-radial coh [.2 .4 .6 .8]",8282,0.2
"1055",1,2,"linear",0,0.4,"R",4.7608,TRUE,8,2259,"Female","unknown.no.rpt","linear-radial coh [.2 .4 .6 .8]",8282,0.4
"1055",3,1,"linear",0,0.8,"R",3.6201,TRUE,8,2259,"Female","unknown.no.rpt","linear-radial coh [.2 .4 .6 .8]",8282,0.8
"1055",3,3,"radial",0,0.8,"R",1.8888,TRUE,8,2259,"Female","unknown.no.rpt","linear-radial coh [.2 .4 .6 .8]",8282,0.8
"1055",4,11,"radial",0.6,0,"L",1.7019,TRUE,2,2259,"Female","unknown.no.rpt","linear-radial coh [.2 .4 .6 .8]",8282,0.6
"1055",4,10,"radial",0,0.6,"R",2.2353,TRUE,2,2259,"Female","unknown.no.rpt","linear-radial coh [.2 .4 .6 .8]",8282,0.6
"1055",2,16,"linear",0,0.6,"R",2.5023,TRUE,2,2259,"Female","unknown.no.rpt","linear-radial coh [.2 .4 .6 .8]",8282,0.6
"1055",2,14,"linear",0,0.4,"R",7.0561,TRUE,2,2259,"Female","unknown.no.rpt","linear-radial coh [.2 .4 .6 .8]",8282,0.4
"1055",1,7,"radial",0.2,0,"L",1.5238,TRUE,8,2259,"Female","unknown.no.rpt","linear-radial coh [.2 .4 .6 .8]",8282,0.2
"1055",4,15,"linear",0.2,0,"L",1.8205,TRUE,2,2259,"Female","unknown.no.rpt","linear-radial coh [.2 .4 .6 .8]",8282,0.2
"1055",1,5,"radial",0.6,0,"L",2.0198,TRUE,8,2259,"Female","unknown.no.rpt","linear-radial coh [.2 .4 .6 .8]",8282,0.6
"1055",1,9,"linear",0,0.6,"R",3.4697,TRUE,8,2259,"Female","unknown.no.rpt","linear-radial coh [.2 .4 .6 .8]",8282,0.6
"1055",2,7,"radial",0,0.8,"R",2.5685,TRUE,2,2259,"Female","unknown.no.rpt","linear-radial coh [.2 .4 .6 .8]",8282,0.8
"1055",1,6,"radial",0.6,0,"L",1.8027,TRUE,8,2259,"Female","unknown.no.rpt","linear-radial coh [.2 .4 .6 .8]",8282,0.6
"1055",1,8,"linear",0.4,0,"L",1.7694,TRUE,8,2259,"Female","unknown.no.rpt","linear-radial coh [.2 .4 .6 .8]",8282,0.4
"1055",2,5,"radial",0.8,0,"L",2.1516,TRUE,2,2259,"Female","unknown.no.rpt","linear-radial coh [.2 .4 .6 .8]",8282,0.8
"1055",3,7,"radial",0.8,0,"L",1.1875,TRUE,8,2259,"Female","unknown.no.rpt","linear-radial coh [.2 .4 .6 .8]",8282,0.8
"1055",1,15,"linear",0,0.2,"L",5.3878,FALSE,8,2259,"Female","unknown.no.rpt","linear-radial coh [.2 .4 .6 .8]",8282,0.2
"1055",1,6,"linear",0.4,0,"L",2.9191,TRUE,8,2259,"Female","unknown.no.rpt","linear-radial coh [.2 .4 .6 .8]",8282,0.4
"1055",1,13,"linear",0.8,0,"L",1.9348,TRUE,8,2259,"Female","unknown.no.rpt","linear-radial coh [.2 .4 .6 .8]",8282,0.8
"1055",4,1,"linear",0,0.8,"R",1.6682,TRUE,2,2259,"Female","unknown.no.rpt","linear-radial coh [.2 .4 .6 .8]",8282,0.8
"1055",3,13,"linear",0.8,0,"L",1.5015,TRUE,8,2259,"Female","unknown.no.rpt","linear-radial coh [.2 .4 .6 .8]",8282,0.8
"1055",3,10,"radial",0,0.4,"R",1.6182,TRUE,8,2259,"Female","unknown.no.rpt","linear-radial coh [.2 .4 .6 .8]",8282,0.4
"1055",4,1,"linear",0,0.8,"R",1.6352,TRUE,2,2259,"Female","unknown.no.rpt","linear-radial coh [.2 .4 .6 .8]",8282,0.8
"1055",2,13,"linear",0,0.6,"R",2.2685,TRUE,2,2259,"Female","unknown.no.rpt","linear-radial coh [.2 .4 .6 .8]",8282,0.6
"1055",4,5,"radial",0.8,0,"L",1.2517,TRUE,2,2259,"Female","unknown.no.rpt","linear-radial coh [.2 .4 .6 .8]",8282,0.8
"1055",4,8,"linear",0,0.4,"L",2.8522,FALSE,2,2259,"Female","unknown.no.rpt","linear-radial coh [.2 .4 .6 .8]",8282,0.4
"1055",3,6,"linear",0.4,0,"L",1.4767,TRUE,8,2259,"Female","unknown.no.rpt","linear-radial coh [.2 .4 .6 .8]",8282,0.4
"1055",4,16,"linear",0,0.6,"R",2.0361,TRUE,2,2259,"Female","unknown.no.rpt","linear-radial coh [.2 .4 .6 .8]",8282,0.6
"1055",1,3,"radial",0,0.8,"R",1.7015,TRUE,8,2259,"Female","unknown.no.rpt","linear-radial coh [.2 .4 .6 .8]",8282,0.8
"1055",2,8,"linear",0.6,0,"L",3.0027,TRUE,2,2259,"Female","unknown.no.rpt","linear-radial coh [.2 .4 .6 .8]",8282,0.6
"1055",2,9,"radial",0.2,0,"L",2.5526,TRUE,2,2259,"Female","unknown.no.rpt","linear-radial coh [.2 .4 .6 .8]",8282,0.2
"1055",4,1,"linear",0,0.8,"R",1.924,TRUE,2,2259,"Female","unknown.no.rpt","linear-radial coh [.2 .4 .6 .8]",8282,0.8
"1055",2,6,"linear",0.4,0,"R",2.5199,FALSE,2,2259,"Female","unknown.no.rpt","linear-radial coh [.2 .4 .6 .8]",8282,0.4
"1055",3,12,"linear",0,0.6,"R",1.3558,TRUE,8,2259,"Female","unknown.no.rpt","linear-radial coh [.2 .4 .6 .8]",8282,0.6
"1055",1,5,"radial",0.6,0,"L",1.9206,TRUE,8,2259,"Female","unknown.no.rpt","linear-radial coh [.2 .4 .6 .8]",8282,0.6
"1055",4,10,"radial",0.2,0,"L",1.3016,TRUE,2,2259,"Female","unknown.no.rpt","linear-radial coh [.2 .4 .6 .8]",8282,0.2
"1055",4,5,"radial",0.8,0,"L",1.0678,TRUE,2,2259,"Female","unknown.no.rpt","linear-radial coh [.2 .4 .6 .8]",8282,0.8
"1055",3,14,"linear",0.6,0,"L",2.8522,TRUE,8,2259,"Female","unknown.no.rpt","linear-radial coh [.2 .4 .6 .8]",8282,0.6
"1055",3,3,"linear",0,0.8,"R",1.2845,TRUE,8,2259,"Female","unknown.no.rpt","linear-radial coh [.2 .4 .6 .8]",8282,0.8
"1055",4,8,"radial",0.2,0,"L",1.4684,TRUE,2,2259,"Female","unknown.no.rpt","linear-radial coh [.2 .4 .6 .8]",8282,0.2
"1055",2,5,"radial",0.8,0,"L",1.6522,TRUE,2,2259,"Female","unknown.no.rpt","linear-radial coh [.2 .4 .6 .8]",8282,0.8
"1055",1,15,"radial",0.4,0,"L",1.5514,TRUE,8,2259,"Female","unknown.no.rpt","linear-radial coh [.2 .4 .6 .8]",8282,0.4
"1055",1,3,"radial",0,0.8,"R",1.7517,TRUE,8,2259,"Female","unknown.no.rpt","linear-radial coh [.2 .4 .6 .8]",8282,0.8
"1055",4,16,"linear",0,0.6,"L",2.2189,FALSE,2,2259,"Female","unknown.no.rpt","linear-radial coh [.2 .4 .6 .8]",8282,0.6
"1055",4,7,"radial",0.6,0,"L",1.9116,TRUE,2,2259,"Female","unknown.no.rpt","linear-radial coh [.2 .4 .6 .8]",8282,0.6
"1055",2,4,"radial",0,0.2,"R",2.5601,TRUE,2,2259,"Female","unknown.no.rpt","linear-radial coh [.2 .4 .6 .8]",8282,0.2
"1055",3,16,"linear",0.2,0,"L",1.3518,TRUE,8,2259,"Female","unknown.no.rpt","linear-radial coh [.2 .4 .6 .8]",8282,0.2
"1055",3,13,"radial",0,0.2,"R",3.8029,TRUE,8,2259,"Female","unknown.no.rpt","linear-radial coh [.2 .4 .6 .8]",8282,0.2
"1055",4,12,"linear",0.4,0,"L",1.2346,TRUE,2,2259,"Female","unknown.no.rpt","linear-radial coh [.2 .4 .6 .8]",8282,0.4
"1055",1,2,"radial",0,0.8,"R",1.5712,TRUE,8,2259,"Female","unknown.no.rpt","linear-radial coh [.2 .4 .6 .8]",8282,0.8
"1055",3,9,"radial",0,0.4,"R",1.3548,TRUE,8,2259,"Female","unknown.no.rpt","linear-radial coh [.2 .4 .6 .8]",8282,0.4
"1055",2,11,"radial",0.6,0,"L",1.9681,TRUE,2,2259,"Female","unknown.no.rpt","linear-radial coh [.2 .4 .6 .8]",8282,0.6
"1055",2,14,"radial",0,0.8,"R",2.0183,TRUE,2,2259,"Female","unknown.no.rpt","linear-radial coh [.2 .4 .6 .8]",8282,0.8
"1055",4,11,"linear",0.6,0,"L",1.4747,TRUE,2,2259,"Female","unknown.no.rpt","linear-radial coh [.2 .4 .6 .8]",8282,0.6
"1055",2,2,"linear",0.8,0,"L",3.4362,TRUE,2,2259,"Female","unknown.no.rpt","linear-radial coh [.2 .4 .6 .8]",8282,0.8
"1055",4,16,"linear",0,0.6,"R",1.5512,TRUE,2,2259,"Female","unknown.no.rpt","linear-radial coh [.2 .4 .6 .8]",8282,0.6
"1055",1,8,"radial",0.2,0,"L",2.4108,TRUE,8,2259,"Female","unknown.no.rpt","linear-radial coh [.2 .4 .6 .8]",8282,0.2
"1055",1,11,"radial",0.4,0,"L",2.4693,TRUE,8,2259,"Female","unknown.no.rpt","linear-radial coh [.2 .4 .6 .8]",8282,0.4
"1055",2,8,"linear",0,0.4,"R",2.2188,TRUE,2,2259,"Female","unknown.no.rpt","linear-radial coh [.2 .4 .6 .8]",8282,0.4
"1055",2,15,"radial",0.2,0,"L",1.5679,TRUE,2,2259,"Female","unknown.no.rpt","linear-radial coh [.2 .4 .6 .8]",8282,0.2
"1055",3,12,"linear",0,0.6,"R",1.2343,TRUE,8,2259,"Female","unknown.no.rpt","linear-radial coh [.2 .4 .6 .8]",8282,0.6
"1055",3,9,"linear",0,0.6,"R",1.8591,TRUE,8,2259,"Female","unknown.no.rpt","linear-radial coh [.2 .4 .6 .8]",8282,0.6
"1055",3,11,"radial",0.4,0,"L",1.535,TRUE,8,2259,"Female","unknown.no.rpt","linear-radial coh [.2 .4 .6 .8]",8282,0.4
"1055",3,10,"radial",0,0.2,"R",1.5347,TRUE,8,2259,"Female","unknown.no.rpt","linear-radial coh [.2 .4 .6 .8]",8282,0.2
"1055",3,13,"linear",0.8,0,"L",1.1342,TRUE,8,2259,"Female","unknown.no.rpt","linear-radial coh [.2 .4 .6 .8]",8282,0.8
"1055",4,11,"radial",0,0.2,"R",2.4569,TRUE,2,2259,"Female","unknown.no.rpt","linear-radial coh [.2 .4 .6 .8]",8282,0.2
"1055",1,16,"linear",0.2,0,"L",5.1057,TRUE,8,2259,"Female","unknown.no.rpt","linear-radial coh [.2 .4 .6 .8]",8282,0.2
"1055",2,6,"radial",0.6,0,"L",1.7017,TRUE,2,2259,"Female","unknown.no.rpt","linear-radial coh [.2 .4 .6 .8]",8282,0.6
"1055",4,14,"linear",0,0.4,"R",2.0193,TRUE,2,2259,"Female","unknown.no.rpt","linear-radial coh [.2 .4 .6 .8]",8282,0.4
"1055",3,2,"radial",0,0.6,"R",1.9518,TRUE,8,2259,"Female","unknown.no.rpt","linear-radial coh [.2 .4 .6 .8]",8282,0.6
"1055",2,11,"radial",0,0.2,"R",2.569,TRUE,2,2259,"Female","unknown.no.rpt","linear-radial coh [.2 .4 .6 .8]",8282,0.2
"1055",3,2,"radial",0,0.6,"R",1.5755,TRUE,8,2259,"Female","unknown.no.rpt","linear-radial coh [.2 .4 .6 .8]",8282,0.6
"1055",2,10,"linear",0.8,0,"L",4.1365,TRUE,2,2259,"Female","unknown.no.rpt","linear-radial coh [.2 .4 .6 .8]",8282,0.8
"1055",1,9,"radial",0.8,0,"L",1.318,TRUE,8,2259,"Female","unknown.no.rpt","linear-radial coh [.2 .4 .6 .8]",8282,0.8
"1055",1,11,"radial",0.2,0,"L",2.9694,TRUE,8,2259,"Female","unknown.no.rpt","linear-radial coh [.2 .4 .6 .8]",8282,0.2
"1055",1,15,"linear",0,0.2,"R",3.3572,TRUE,8,2259,"Female","unknown.no.rpt","linear-radial coh [.2 .4 .6 .8]",8282,0.2
"1055",1,5,"linear",0.4,0,"R",3.0528,FALSE,8,2259,"Female","unknown.no.rpt","linear-radial coh [.2 .4 .6 .8]",8282,0.4
"1055",2,1,"linear",0,0.8,"R",2.4769,TRUE,2,2259,"Female","unknown.no.rpt","linear-radial coh [.2 .4 .6 .8]",8282,0.8
"1055",4,9,"linear",0.2,0,"R",2.7025,FALSE,2,2259,"Female","unknown.no.rpt","linear-radial coh [.2 .4 .6 .8]",8282,0.2
"1055",4,12,"radial",0.8,0,"L",2.519,TRUE,2,2259,"Female","unknown.no.rpt","linear-radial coh [.2 .4 .6 .8]",8282,0.8
"1055",3,7,"radial",0.8,0,"L",1.9851,TRUE,8,2259,"Female","unknown.no.rpt","linear-radial coh [.2 .4 .6 .8]",8282,0.8
"1055",2,2,"radial",0.4,0,"L",1.9685,TRUE,2,2259,"Female","unknown.no.rpt","linear-radial coh [.2 .4 .6 .8]",8282,0.4
"1055",2,14,"radial",0,0.8,"R",1.4684,TRUE,2,2259,"Female","unknown.no.rpt","linear-radial coh [.2 .4 .6 .8]",8282,0.8
"1055",4,12,"linear",0.4,0,"R",2.9024,FALSE,2,2259,"Female","unknown.no.rpt","linear-radial coh [.2 .4 .6 .8]",8282,0.4
"1055",3,2,"linear",0,0.4,"R",3.8774,TRUE,8,2259,"Female","unknown.no.rpt","linear-radial coh [.2 .4 .6 .8]",8282,0.4
"1055",4,15,"linear",0.2,0,"R",1.1185,FALSE,2,2259,"Female","unknown.no.rpt","linear-radial coh [.2 .4 .6 .8]",8282,0.2
"1055",4,14,"radial",0,0.8,"R",1.7112,TRUE,2,2259,"Female","unknown.no.rpt","linear-radial coh [.2 .4 .6 .8]",8282,0.8
"1055",2,4,"linear",0.8,0,"L",2.4521,TRUE,2,2259,"Female","unknown.no.rpt","linear-radial coh [.2 .4 .6 .8]",8282,0.8
"1055",4,15,"linear",0.2,0,"L",1.9519,TRUE,2,2259,"Female","unknown.no.rpt","linear-radial coh [.2 .4 .6 .8]",8282,0.2
"1055",1,10,"radial",0,0.2,"R",2.836,TRUE,8,2259,"Female","unknown.no.rpt","linear-radial coh [.2 .4 .6 .8]",8282,0.2
"1055",4,4,"radial",0,0.4,"R",1.8684,TRUE,2,2259,"Female","unknown.no.rpt","linear-radial coh [.2 .4 .6 .8]",8282,0.4
"1055",2,16,"linear",0,0.6,"R",1.9854,TRUE,2,2259,"Female","unknown.no.rpt","linear-radial coh [.2 .4 .6 .8]",8282,0.6
"1055",3,14,"linear",0.6,0,"L",1.1716,TRUE,8,2259,"Female","unknown.no.rpt","linear-radial coh [.2 .4 .6 .8]",8282,0.6
"1055",3,3,"radial",0,0.8,"R",1.8682,TRUE,8,2259,"Female","unknown.no.rpt","linear-radial coh [.2 .4 .6 .8]",8282,0.8
"1055",1,7,"radial",0.8,0,"L",1.1348,TRUE,8,2259,"Female","unknown.no.rpt","linear-radial coh [.2 .4 .6 .8]",8282,0.8
"1055",2,14,"linear",0,0.4,"L",2.0018,FALSE,2,2259,"Female","unknown.no.rpt","linear-radial coh [.2 .4 .6 .8]",8282,0.4
"1055",1,1,"radial",0,0.8,"R",1.5347,TRUE,8,2259,"Female","unknown.no.rpt","linear-radial coh [.2 .4 .6 .8]",8282,0.8
"1055",1,13,"linear",0.8,0,"L",1.5896,TRUE,8,2259,"Female","unknown.no.rpt","linear-radial coh [.2 .4 .6 .8]",8282,0.8
"1055",4,10,"linear",0,0.6,"R",3.6032,TRUE,2,2259,"Female","unknown.no.rpt","linear-radial coh [.2 .4 .6 .8]",8282,0.6
"1055",2,10,"radial",0.2,0,"L",2.1689,TRUE,2,2259,"Female","unknown.no.rpt","linear-radial coh [.2 .4 .6 .8]",8282,0.2
"1055",3,2,"linear",0,0.4,"R",1.6014,TRUE,8,2259,"Female","unknown.no.rpt","linear-radial coh [.2 .4 .6 .8]",8282,0.4
"1055",4,2,"linear",0.8,0,"L",1.7356,TRUE,2,2259,"Female","unknown.no.rpt","linear-radial coh [.2 .4 .6 .8]",8282,0.8
"1055",3,13,"radial",0.4,0,"L",1.5679,TRUE,8,2259,"Female","unknown.no.rpt","linear-radial coh [.2 .4 .6 .8]",8282,0.4
"1055",4,4,"linear",0.8,0,"L",1.2011,TRUE,2,2259,"Female","unknown.no.rpt","linear-radial coh [.2 .4 .6 .8]",8282,0.8
"1055",1,12,"radial",0,0.4,"R",2.836,TRUE,8,2259,"Female","unknown.no.rpt","linear-radial coh [.2 .4 .6 .8]",8282,0.4
"1055",4,3,"radial",0,0.4,"R",1.1689,TRUE,2,2259,"Female","unknown.no.rpt","linear-radial coh [.2 .4 .6 .8]",8282,0.4
"1055",1,11,"radial",0.2,0,"L",2.3852,TRUE,8,2259,"Female","unknown.no.rpt","linear-radial coh [.2 .4 .6 .8]",8282,0.2
"1055",4,9,"radial",0.2,0,"L",1.7183,TRUE,2,2259,"Female","unknown.no.rpt","linear-radial coh [.2 .4 .6 .8]",8282,0.2
"1055",4,8,"radial",0,0.8,"R",1.7182,TRUE,2,2259,"Female","unknown.no.rpt","linear-radial coh [.2 .4 .6 .8]",8282,0.8
"1055",4,10,"linear",0,0.4,"L",1.8236,FALSE,2,2259,"Female","unknown.no.rpt","linear-radial coh [.2 .4 .6 .8]",8282,0.4
"1055",2,12,"radial",0.8,0,"L",1.5625,TRUE,2,2259,"Female","unknown.no.rpt","linear-radial coh [.2 .4 .6 .8]",8282,0.8
"1055",1,15,"radial",0.4,0,"L",1.7348,TRUE,8,2259,"Female","unknown.no.rpt","linear-radial coh [.2 .4 .6 .8]",8282,0.4
"1055",2,4,"linear",0,0.8,"R",2.9936,TRUE,2,2259,"Female","unknown.no.rpt","linear-radial coh [.2 .4 .6 .8]",8282,0.8
"1055",2,13,"linear",0,0.2,"R",2.2184,TRUE,2,2259,"Female","unknown.no.rpt","linear-radial coh [.2 .4 .6 .8]",8282,0.2
"1055",1,4,"linear",0,0.4,"R",1.1012,TRUE,8,2259,"Female","unknown.no.rpt","linear-radial coh [.2 .4 .6 .8]",8282,0.4
"1055",1,4,"linear",0,0.4,"R",1.5188,TRUE,8,2259,"Female","unknown.no.rpt","linear-radial coh [.2 .4 .6 .8]",8282,0.4
"1055",1,14,"linear",0,0.2," ",0,FALSE,8,2259,"Female","unknown.no.rpt","linear-radial coh [.2 .4 .6 .8]",8282,0.2
"1055",1,9,"radial",0,0.4,"R",1.5189,TRUE,8,2259,"Female","unknown.no.rpt","linear-radial coh [.2 .4 .6 .8]",8282,0.4
"1055",3,8,"radial",0.2,0,"L",2.1353,TRUE,8,2259,"Female","unknown.no.rpt","linear-radial coh [.2 .4 .6 .8]",8282,0.2
"1055",2,11,"linear",0.6,0,"L",2.2021,TRUE,2,2259,"Female","unknown.no.rpt","linear-radial coh [.2 .4 .6 .8]",8282,0.6
"1055",4,3,"radial",0,0.4,"R",1.3514,TRUE,2,2259,"Female","unknown.no.rpt","linear-radial coh [.2 .4 .6 .8]",8282,0.4
"1055",3,7,"radial",0.2,0,"L",3.353,TRUE,8,2259,"Female","unknown.no.rpt","linear-radial coh [.2 .4 .6 .8]",8282,0.2
"1055",4,14,"linear",0,0.4,"R",1.1017,TRUE,2,2259,"Female","unknown.no.rpt","linear-radial coh [.2 .4 .6 .8]",8282,0.4
"1055",1,10,"radial",0,0.4,"R",1.952,TRUE,8,2259,"Female","unknown.no.rpt","linear-radial coh [.2 .4 .6 .8]",8282,0.4
"1055",1,8,"linear",0.8,0,"L",1.435,TRUE,8,2259,"Female","unknown.no.rpt","linear-radial coh [.2 .4 .6 .8]",8282,0.8
"1055",3,4,"linear",0,0.8,"R",2.2351,TRUE,8,2259,"Female","unknown.no.rpt","linear-radial coh [.2 .4 .6 .8]",8282,0.8
"1055",3,9,"linear",0.8,0,"L",1.6735,TRUE,8,2259,"Female","unknown.no.rpt","linear-radial coh [.2 .4 .6 .8]",8282,0.8
"1055",2,13,"linear",0,0.2,"R",4.0889,TRUE,2,2259,"Female","unknown.no.rpt","linear-radial coh [.2 .4 .6 .8]",8282,0.2
"1055",1,4,"radial",0,0.6,"R",1.8682,TRUE,8,2259,"Female","unknown.no.rpt","linear-radial coh [.2 .4 .6 .8]",8282,0.6
"1055",2,5,"radial",0,0.2,"R",1.8025,TRUE,2,2259,"Female","unknown.no.rpt","linear-radial coh [.2 .4 .6 .8]",8282,0.2
"1055",3,11,"radial",0.4,0,"L",1.3367,TRUE,8,2259,"Female","unknown.no.rpt","linear-radial coh [.2 .4 .6 .8]",8282,0.4
"1055",2,1,"linear",0,0.8,"R",2.7361,TRUE,2,2259,"Female","unknown.no.rpt","linear-radial coh [.2 .4 .6 .8]",8282,0.8
"1055",3,15,"radial",0.4,0,"L",1.4348,TRUE,8,2259,"Female","unknown.no.rpt","linear-radial coh [.2 .4 .6 .8]",8282,0.4
"1055",2,6,"radial",0.6,0,"L",1.6178,TRUE,2,2259,"Female","unknown.no.rpt","linear-radial coh [.2 .4 .6 .8]",8282,0.6
"1055",4,10,"linear",0.8,0,"L",1.0386,TRUE,2,2259,"Female","unknown.no.rpt","linear-radial coh [.2 .4 .6 .8]",8282,0.8
"1055",2,3,"linear",0,0.8,"R",2.0184,TRUE,2,2259,"Female","unknown.no.rpt","linear-radial coh [.2 .4 .6 .8]",8282,0.8
"1055",1,13,"radial",0.4,0,"L",1.685,TRUE,8,2259,"Female","unknown.no.rpt","linear-radial coh [.2 .4 .6 .8]",8282,0.4
"1055",2,15,"linear",0.2,0,"L",7.0564,TRUE,2,2259,"Female","unknown.no.rpt","linear-radial coh [.2 .4 .6 .8]",8282,0.2
"1055",3,8,"linear",0.4,0,"L",2.288,TRUE,8,2259,"Female","unknown.no.rpt","linear-radial coh [.2 .4 .6 .8]",8282,0.4
"1055",1,6,"linear",0.4,0,"L",1.7683,TRUE,8,2259,"Female","unknown.no.rpt","linear-radial coh [.2 .4 .6 .8]",8282,0.4
"1055",2,7,"radial",0,0.2,"R",4.3039,TRUE,2,2259,"Female","unknown.no.rpt","linear-radial coh [.2 .4 .6 .8]",8282,0.2
"1055",2,15,"radial",0.2,0,"L",3.404,TRUE,2,2259,"Female","unknown.no.rpt","linear-radial coh [.2 .4 .6 .8]",8282,0.2
"1055",2,13,"linear",0,0.2,"R",2.2857,TRUE,2,2259,"Female","unknown.no.rpt","linear-radial coh [.2 .4 .6 .8]",8282,0.2
"1055",4,14,"linear",0,0.4,"R",3.5075,TRUE,2,2259,"Female","unknown.no.rpt","linear-radial coh [.2 .4 .6 .8]",8282,0.4
"1055",3,5,"radial",0.6,0,"L",1.1844,TRUE,8,2259,"Female","unknown.no.rpt","linear-radial coh [.2 .4 .6 .8]",8282,0.6
"1055",3,1,"linear",0,0.8,"R",1.6015,TRUE,8,2259,"Female","unknown.no.rpt","linear-radial coh [.2 .4 .6 .8]",8282,0.8
"1055",4,6,"radial",0.8,0,"L",1.6908,TRUE,2,2259,"Female","unknown.no.rpt","linear-radial coh [.2 .4 .6 .8]",8282,0.8
"1055",4,5,"linear",0.6,0,"L",1.3845,TRUE,2,2259,"Female","unknown.no.rpt","linear-radial coh [.2 .4 .6 .8]",8282,0.6
"1055",2,12,"linear",0.2,0,"L",2.1022,TRUE,2,2259,"Female","unknown.no.rpt","linear-radial coh [.2 .4 .6 .8]",8282,0.2
"1055",2,1,"radial",0.4,0,"L",8.1905,TRUE,2,2259,"Female","unknown.no.rpt","linear-radial coh [.2 .4 .6 .8]",8282,0.4
"1055",1,14,"linear",0.6,0,"L",2.0687,TRUE,8,2259,"Female","unknown.no.rpt","linear-radial coh [.2 .4 .6 .8]",8282,0.6
"1055",1,14,"linear",0.6,0,"L",1.5561,TRUE,8,2259,"Female","unknown.no.rpt","linear-radial coh [.2 .4 .6 .8]",8282,0.6
"1055",4,6,"linear",0.4,0,"L",2.4358,TRUE,2,2259,"Female","unknown.no.rpt","linear-radial coh [.2 .4 .6 .8]",8282,0.4
"1055",4,8,"linear",0.6,0,"L",1.2678,TRUE,2,2259,"Female","unknown.no.rpt","linear-radial coh [.2 .4 .6 .8]",8282,0.6
"1055",4,6,"linear",0.4,0,"L",1.7015,TRUE,2,2259,"Female","unknown.no.rpt","linear-radial coh [.2 .4 .6 .8]",8282,0.4
"1055",4,4,"linear",0,0.8,"R",1.3012,TRUE,2,2259,"Female","unknown.no.rpt","linear-radial coh [.2 .4 .6 .8]",8282,0.8
"1055",4,14,"radial",0,0.8,"R",1.2345,TRUE,2,2259,"Female","unknown.no.rpt","linear-radial coh [.2 .4 .6 .8]",8282,0.8
"1055",4,3,"radial",0,0.2,"R",1.8017,TRUE,2,2259,"Female","unknown.no.rpt","linear-radial coh [.2 .4 .6 .8]",8282,0.2
"1055",1,12,"radial",0,0.2,"R",2.5522,TRUE,8,2259,"Female","unknown.no.rpt","linear-radial coh [.2 .4 .6 .8]",8282,0.2
"1055",1,16,"linear",0.2,0,"L",3.6874,TRUE,8,2259,"Female","unknown.no.rpt","linear-radial coh [.2 .4 .6 .8]",8282,0.2
"1055",3,5,"linear",0,0.4,"R",3.5867,TRUE,8,2259,"Female","unknown.no.rpt","linear-radial coh [.2 .4 .6 .8]",8282,0.4
"1055",3,14,"linear",0,0.2,"L",2.4188,FALSE,8,2259,"Female","unknown.no.rpt","linear-radial coh [.2 .4 .6 .8]",8282,0.2
"1055",1,14,"linear",0.6,0,"L",1.7681,TRUE,8,2259,"Female","unknown.no.rpt","linear-radial coh [.2 .4 .6 .8]",8282,0.6
"1055",4,6,"radial",0.6,0,"L",1.8848,TRUE,2,2259,"Female","unknown.no.rpt","linear-radial coh [.2 .4 .6 .8]",8282,0.6
"1055",2,15,"linear",0.2,0,"R",2.9026,FALSE,2,2259,"Female","unknown.no.rpt","linear-radial coh [.2 .4 .6 .8]",8282,0.2
"1055",1,10,"linear",0.6,0,"L",1.6848,TRUE,8,2259,"Female","unknown.no.rpt","linear-radial coh [.2 .4 .6 .8]",8282,0.6
"1055",1,4,"radial",0,0.6,"R",1.8683,TRUE,8,2259,"Female","unknown.no.rpt","linear-radial coh [.2 .4 .6 .8]",8282,0.6
"1055",4,15,"radial",0.2,0,"L",1.5019,TRUE,2,2259,"Female","unknown.no.rpt","linear-radial coh [.2 .4 .6 .8]",8282,0.2
"1055",2,2,"radial",0.4,0,"L",1.6059,TRUE,2,2259,"Female","unknown.no.rpt","linear-radial coh [.2 .4 .6 .8]",8282,0.4
"1055",3,9,"radial",0,0.4,"L",2.2516,FALSE,8,2259,"Female","unknown.no.rpt","linear-radial coh [.2 .4 .6 .8]",8282,0.4
"1055",4,9,"radial",0,0.6,"R",1.1012,TRUE,2,2259,"Female","unknown.no.rpt","linear-radial coh [.2 .4 .6 .8]",8282,0.6
"1055",4,3,"radial",0.4,0,"L",1.4348,TRUE,2,2259,"Female","unknown.no.rpt","linear-radial coh [.2 .4 .6 .8]",8282,0.4
"1055",2,16,"radial",0,0.6,"R",1.7517,TRUE,2,2259,"Female","unknown.no.rpt","linear-radial coh [.2 .4 .6 .8]",8282,0.6
"1055",2,1,"radial",0.4,0,"L",1.4731,TRUE,2,2259,"Female","unknown.no.rpt","linear-radial coh [.2 .4 .6 .8]",8282,0.4
"1055",1,10,"linear",0.6,0,"L",2.3021,TRUE,8,2259,"Female","unknown.no.rpt","linear-radial coh [.2 .4 .6 .8]",8282,0.6
"1055",2,9,"linear",0,0.2,"L",3.1869,FALSE,2,2259,"Female","unknown.no.rpt","linear-radial coh [.2 .4 .6 .8]",8282,0.2
"1055",3,16,"linear",0.2,0,"R",5.7423,FALSE,8,2259,"Female","unknown.no.rpt","linear-radial coh [.2 .4 .6 .8]",8282,0.2
"1055",4,4,"linear",0.8,0,"L",1.7368,TRUE,2,2259,"Female","unknown.no.rpt","linear-radial coh [.2 .4 .6 .8]",8282,0.8
"1055",3,5,"radial",0.6,0,"L",1.5195,TRUE,8,2259,"Female","unknown.no.rpt","linear-radial coh [.2 .4 .6 .8]",8282,0.6
"1055",3,5,"radial",0.6,0,"L",1.6846,TRUE,8,2259,"Female","unknown.no.rpt","linear-radial coh [.2 .4 .6 .8]",8282,0.6
"1055",1,7,"linear",0.4,0,"L",3.7033,TRUE,8,2259,"Female","unknown.no.rpt","linear-radial coh [.2 .4 .6 .8]",8282,0.4
"1055",3,6,"radial",0.6,0,"L",1.2707,TRUE,8,2259,"Female","unknown.no.rpt","linear-radial coh [.2 .4 .6 .8]",8282,0.6
"1055",1,5,"radial",0.6,0,"L",1.2675,TRUE,8,2259,"Female","unknown.no.rpt","linear-radial coh [.2 .4 .6 .8]",8282,0.6
"1055",1,7,"linear",0,0.6,"R",1.9519,TRUE,8,2259,"Female","unknown.no.rpt","linear-radial coh [.2 .4 .6 .8]",8282,0.6
"1055",2,14,"linear",0,0.4,"L",2.9191,FALSE,2,2259,"Female","unknown.no.rpt","linear-radial coh [.2 .4 .6 .8]",8282,0.4
"1055",2,16,"radial",0,0.6,"R",1.8685,TRUE,2,2259,"Female","unknown.no.rpt","linear-radial coh [.2 .4 .6 .8]",8282,0.6
"1055",3,9,"radial",0.8,0,"L",1.1676,TRUE,8,2259,"Female","unknown.no.rpt","linear-radial coh [.2 .4 .6 .8]",8282,0.8
"1055",2,11,"linear",0.6,0,"L",3.1358,TRUE,2,2259,"Female","unknown.no.rpt","linear-radial coh [.2 .4 .6 .8]",8282,0.6
"1055",1,11,"linear",0.8,0,"L",1.7349,TRUE,8,2259,"Female","unknown.no.rpt","linear-radial coh [.2 .4 .6 .8]",8282,0.8
"1055",2,9,"radial",0,0.6,"R",2.4687,TRUE,2,2259,"Female","unknown.no.rpt","linear-radial coh [.2 .4 .6 .8]",8282,0.6
"1055",1,15,"linear",0,0.2,"R",3.4372,TRUE,8,2259,"Female","unknown.no.rpt","linear-radial coh [.2 .4 .6 .8]",8282,0.2
"1055",2,9,"radial",0,0.8,"R",2.5192,TRUE,2,2259,"Female","unknown.no.rpt","linear-radial coh [.2 .4 .6 .8]",8282,0.8
"1055",3,16,"linear",0.2,0,"L",1.9514,TRUE,8,2259,"Female","unknown.no.rpt","linear-radial coh [.2 .4 .6 .8]",8282,0.2
"1055",4,13,"linear",0,0.6,"L",4.6043,FALSE,2,2259,"Female","unknown.no.rpt","linear-radial coh [.2 .4 .6 .8]",8282,0.6
"1055",2,8,"radial",0.8,0,"L",3.1195,TRUE,2,2259,"Female","unknown.no.rpt","linear-radial coh [.2 .4 .6 .8]",8282,0.8
"1055",1,9,"radial",0,0.4,"R",2.0018,TRUE,8,2259,"Female","unknown.no.rpt","linear-radial coh [.2 .4 .6 .8]",8282,0.4
"1055",1,10,"radial",0,0.2,"R",2.3029,TRUE,8,2259,"Female","unknown.no.rpt","linear-radial coh [.2 .4 .6 .8]",8282,0.2
"1055",4,7,"linear",0,0.2,"L",3.0193,FALSE,2,2259,"Female","unknown.no.rpt","linear-radial coh [.2 .4 .6 .8]",8282,0.2
"1055",3,15,"radial",0.4,0,"L",1.5046,TRUE,8,2259,"Female","unknown.no.rpt","linear-radial coh [.2 .4 .6 .8]",8282,0.4
"1055",3,4,"radial",0,0.6,"R",1.9185,TRUE,8,2259,"Female","unknown.no.rpt","linear-radial coh [.2 .4 .6 .8]",8282,0.6
"1055",2,2,"radial",0,0.4,"R",2.3356,TRUE,2,2259,"Female","unknown.no.rpt","linear-radial coh [.2 .4 .6 .8]",8282,0.4
"1055",3,8,"linear",0,0.6,"R",2.0852,TRUE,8,2259,"Female","unknown.no.rpt","linear-radial coh [.2 .4 .6 .8]",8282,0.6
"1055",2,1,"linear",0,0.8,"R",3.1702,TRUE,2,2259,"Female","unknown.no.rpt","linear-radial coh [.2 .4 .6 .8]",8282,0.8
"1055",1,3,"radial",0.6,0,"L",1.5072,TRUE,8,2259,"Female","unknown.no.rpt","linear-radial coh [.2 .4 .6 .8]",8282,0.6
"1055",4,4,"radial",0,0.2,"L",2.8529,FALSE,2,2259,"Female","unknown.no.rpt","linear-radial coh [.2 .4 .6 .8]",8282,0.2
"1055",2,2,"radial",0,0.4,"R",1.9683,TRUE,2,2259,"Female","unknown.no.rpt","linear-radial coh [.2 .4 .6 .8]",8282,0.4
"1055",2,7,"linear",0.8,0,"L",2.1353,TRUE,2,2259,"Female","unknown.no.rpt","linear-radial coh [.2 .4 .6 .8]",8282,0.8
"1055",2,13,"radial",0.6,0,"L",1.3021,TRUE,2,2259,"Female","unknown.no.rpt","linear-radial coh [.2 .4 .6 .8]",8282,0.6
"1055",4,15,"radial",0.2,0,"L",3.4264,TRUE,2,2259,"Female","unknown.no.rpt","linear-radial coh [.2 .4 .6 .8]",8282,0.2
"1058",4,3,"linear",0,0.8,"R",1.8019,TRUE,2,2025,"Male","more.than.one","linear-radial coh [.2 .4 .6 .8]",8822,0.8
"1058",1,1,"linear",0,0.8,"R",2.8527,TRUE,8,2025,"Male","more.than.one","linear-radial coh [.2 .4 .6 .8]",8822,0.8
"1058",1,9,"linear",0.8,0,"L",7.3236,TRUE,8,2025,"Male","more.than.one","linear-radial coh [.2 .4 .6 .8]",8822,0.8
"1058",2,6,"linear",0.4,0,"L",3.3214,TRUE,8,2025,"Male","more.than.one","linear-radial coh [.2 .4 .6 .8]",8822,0.4
"1058",3,10,"linear",0.8,0,"L",1.3682,TRUE,2,2025,"Male","more.than.one","linear-radial coh [.2 .4 .6 .8]",8822,0.8
"1058",2,7,"linear",0.4,0,"L",1.3719,TRUE,8,2025,"Male","more.than.one","linear-radial coh [.2 .4 .6 .8]",8822,0.4
"1058",3,15,"radial",0.2,0,"R",5.6718,FALSE,2,2025,"Male","more.than.one","linear-radial coh [.2 .4 .6 .8]",8822,0.2
"1058",2,9,"linear",0,0.6,"R",4.4873,TRUE,8,2025,"Male","more.than.one","linear-radial coh [.2 .4 .6 .8]",8822,0.6
"1058",3,7,"linear",0,0.2,"L",5.7718,FALSE,2,2025,"Male","more.than.one","linear-radial coh [.2 .4 .6 .8]",8822,0.2
"1058",4,16,"radial",0,0.6,"R",2.6431,TRUE,2,2025,"Male","more.than.one","linear-radial coh [.2 .4 .6 .8]",8822,0.6
"1058",1,13,"radial",0.4,0,"L",1.7018,TRUE,8,2025,"Male","more.than.one","linear-radial coh [.2 .4 .6 .8]",8822,0.4
"1058",3,5,"radial",0,0.2,"R",7.6907,TRUE,2,2025,"Male","more.than.one","linear-radial coh [.2 .4 .6 .8]",8822,0.2
"1058",4,1,"radial",0.4,0,"L",4.6425,TRUE,2,2025,"Male","more.than.one","linear-radial coh [.2 .4 .6 .8]",8822,0.4
"1058",4,1,"radial",0.4,0,"L",5.7721,TRUE,2,2025,"Male","more.than.one","linear-radial coh [.2 .4 .6 .8]",8822,0.4
"1058",1,8,"radial",0.2,0,"L",2.1854,TRUE,8,2025,"Male","more.than.one","linear-radial coh [.2 .4 .6 .8]",8822,0.2
"1058",4,13,"linear",0,0.2,"L",4.0894,FALSE,2,2025,"Male","more.than.one","linear-radial coh [.2 .4 .6 .8]",8822,0.2
"1058",4,2,"radial",0,0.4,"L",5.1647,FALSE,2,2025,"Male","more.than.one","linear-radial coh [.2 .4 .6 .8]",8822,0.4
"1058",4,2,"radial",0.4,0,"L",1.7523,TRUE,2,2025,"Male","more.than.one","linear-radial coh [.2 .4 .6 .8]",8822,0.4
"1058",2,11,"radial",0.2,0,"L",2.8777,TRUE,8,2025,"Male","more.than.one","linear-radial coh [.2 .4 .6 .8]",8822,0.2
"1058",2,5,"radial",0.6,0,"L",1.671,TRUE,8,2025,"Male","more.than.one","linear-radial coh [.2 .4 .6 .8]",8822,0.6
"1058",4,7,"radial",0.6,0,"L",2.2864,TRUE,2,2025,"Male","more.than.one","linear-radial coh [.2 .4 .6 .8]",8822,0.6
"1058",2,8,"radial",0.2,0,"L",5.7384,TRUE,8,2025,"Male","more.than.one","linear-radial coh [.2 .4 .6 .8]",8822,0.2
"1058",3,11,"linear",0.6,0,"L",4.5704,TRUE,2,2025,"Male","more.than.one","linear-radial coh [.2 .4 .6 .8]",8822,0.6
"1058",2,3,"linear",0,0.8,"L",2.473,FALSE,8,2025,"Male","more.than.one","linear-radial coh [.2 .4 .6 .8]",8822,0.8
"1058",1,6,"radial",0.6,0,"L",1.3346,TRUE,8,2025,"Male","more.than.one","linear-radial coh [.2 .4 .6 .8]",8822,0.6
"1058",4,7,"radial",0,0.8,"R",6.4394,TRUE,2,2025,"Male","more.than.one","linear-radial coh [.2 .4 .6 .8]",8822,0.8
"1058",4,5,"linear",0.6,0,"L",4.1249,TRUE,2,2025,"Male","more.than.one","linear-radial coh [.2 .4 .6 .8]",8822,0.6
"1058",2,9,"radial",0.8,0,"L",1.4182,TRUE,8,2025,"Male","more.than.one","linear-radial coh [.2 .4 .6 .8]",8822,0.8
"1058",3,15,"radial",0.2,0,"L",1.4019,TRUE,2,2025,"Male","more.than.one","linear-radial coh [.2 .4 .6 .8]",8822,0.2
"1058",4,11,"linear",0.6,0,"L",3.3441,TRUE,2,2025,"Male","more.than.one","linear-radial coh [.2 .4 .6 .8]",8822,0.6
"1058",4,5,"linear",0.6,0,"L",1.7681,TRUE,2,2025,"Male","more.than.one","linear-radial coh [.2 .4 .6 .8]",8822,0.6
"1058",4,8,"linear",0,0.4,"R",10.1587,TRUE,2,2025,"Male","more.than.one","linear-radial coh [.2 .4 .6 .8]",8822,0.4
"1058",1,16,"linear",0.2,0,"L",2.5705,TRUE,8,2025,"Male","more.than.one","linear-radial coh [.2 .4 .6 .8]",8822,0.2
"1058",1,3,"radial",0,0.8,"R",2.2352,TRUE,8,2025,"Male","more.than.one","linear-radial coh [.2 .4 .6 .8]",8822,0.8
"1058",3,8,"linear",0.6,0,"L",5.2209,TRUE,2,2025,"Male","more.than.one","linear-radial coh [.2 .4 .6 .8]",8822,0.6
"1058",2,5,"linear",0,0.4,"R",2.1855,TRUE,8,2025,"Male","more.than.one","linear-radial coh [.2 .4 .6 .8]",8822,0.4
"1058",4,11,"linear",0.6,0,"L",1.8351,TRUE,2,2025,"Male","more.than.one","linear-radial coh [.2 .4 .6 .8]",8822,0.6
"1058",2,8,"linear",0.8,0,"L",2.1187,TRUE,8,2025,"Male","more.than.one","linear-radial coh [.2 .4 .6 .8]",8822,0.8
"1058",4,9,"linear",0,0.2,"L",6.0383,FALSE,2,2025,"Male","more.than.one","linear-radial coh [.2 .4 .6 .8]",8822,0.2
"1058",1,13,"radial",0,0.2,"R",2.0858,TRUE,8,2025,"Male","more.than.one","linear-radial coh [.2 .4 .6 .8]",8822,0.2
"1058",3,6,"radial",0.8,0,"L",1.3563,TRUE,2,2025,"Male","more.than.one","linear-radial coh [.2 .4 .6 .8]",8822,0.8
"1058",4,13,"radial",0.6,0,"L",1.3012,TRUE,2,2025,"Male","more.than.one","linear-radial coh [.2 .4 .6 .8]",8822,0.6
"1058",3,13,"linear",0,0.2,"R",3.2865,TRUE,2,2025,"Male","more.than.one","linear-radial coh [.2 .4 .6 .8]",8822,0.2
"1058",3,5,"linear",0.6,0,"L",2.8239,TRUE,2,2025,"Male","more.than.one","linear-radial coh [.2 .4 .6 .8]",8822,0.6
"1058",3,16,"radial",0,0.6,"R",1.5345,TRUE,2,2025,"Male","more.than.one","linear-radial coh [.2 .4 .6 .8]",8822,0.6
"1058",4,9,"radial",0,0.6,"R",1.4354,TRUE,2,2025,"Male","more.than.one","linear-radial coh [.2 .4 .6 .8]",8822,0.6
"1058",1,6,"radial",0.8,0,"L",1.421,TRUE,8,2025,"Male","more.than.one","linear-radial coh [.2 .4 .6 .8]",8822,0.8
"1058",4,16,"radial",0,0.6,"R",1.7959,TRUE,2,2025,"Male","more.than.one","linear-radial coh [.2 .4 .6 .8]",8822,0.6
"1058",4,9,"radial",0,0.8," ",0,FALSE,2,2025,"Male","more.than.one","linear-radial coh [.2 .4 .6 .8]",8822,0.8
"1058",4,13,"linear",0,0.2,"L",2.8522,FALSE,2,2025,"Male","more.than.one","linear-radial coh [.2 .4 .6 .8]",8822,0.2
"1058",4,13,"linear",0,0.2,"R",4.854,TRUE,2,2025,"Male","more.than.one","linear-radial coh [.2 .4 .6 .8]",8822,0.2
"1058",4,10,"linear",0,0.6,"R",2.403,TRUE,2,2025,"Male","more.than.one","linear-radial coh [.2 .4 .6 .8]",8822,0.6
"1058",4,10,"linear",0,0.4,"R",4.5205,TRUE,2,2025,"Male","more.than.one","linear-radial coh [.2 .4 .6 .8]",8822,0.4
"1058",3,2,"radial",0.4,0,"L",1.7679,TRUE,2,2025,"Male","more.than.one","linear-radial coh [.2 .4 .6 .8]",8822,0.4
"1058",3,11,"linear",0.6,0,"L",1.0098,TRUE,2,2025,"Male","more.than.one","linear-radial coh [.2 .4 .6 .8]",8822,0.6
"1058",1,5,"radial",0.6,0,"L",2.1186,TRUE,8,2025,"Male","more.than.one","linear-radial coh [.2 .4 .6 .8]",8822,0.6
"1058",3,13,"radial",0.6,0,"L",1.7367,TRUE,2,2025,"Male","more.than.one","linear-radial coh [.2 .4 .6 .8]",8822,0.6
"1058",3,9,"radial",0,0.8,"R",6.2725,TRUE,2,2025,"Male","more.than.one","linear-radial coh [.2 .4 .6 .8]",8822,0.8
"1058",2,5,"linear",0.4,0,"L",2.1185,TRUE,8,2025,"Male","more.than.one","linear-radial coh [.2 .4 .6 .8]",8822,0.4
"1058",2,8,"linear",0.4,0,"L",1.004,TRUE,8,2025,"Male","more.than.one","linear-radial coh [.2 .4 .6 .8]",8822,0.4
"1058",4,14,"linear",0,0.4,"R",2.3848,TRUE,2,2025,"Male","more.than.one","linear-radial coh [.2 .4 .6 .8]",8822,0.4
"1058",3,8,"linear",0,0.4,"R",2.569,TRUE,2,2025,"Male","more.than.one","linear-radial coh [.2 .4 .6 .8]",8822,0.4
"1058",4,7,"radial",0,0.2,"L",4.9248,FALSE,2,2025,"Male","more.than.one","linear-radial coh [.2 .4 .6 .8]",8822,0.2
"1058",4,11,"radial",0.6,0,"L",3.4029,TRUE,2,2025,"Male","more.than.one","linear-radial coh [.2 .4 .6 .8]",8822,0.6
"1058",1,3,"radial",0,0.8,"R",1.7558,TRUE,8,2025,"Male","more.than.one","linear-radial coh [.2 .4 .6 .8]",8822,0.8
"1058",2,5,"radial",0.6,0,"L",1.5527,TRUE,8,2025,"Male","more.than.one","linear-radial coh [.2 .4 .6 .8]",8822,0.6
"1058",1,6,"linear",0.4,0,"L",2.4856,TRUE,8,2025,"Male","more.than.one","linear-radial coh [.2 .4 .6 .8]",8822,0.4
"1058",3,6,"radial",0.6,0,"L",1.8376,TRUE,2,2025,"Male","more.than.one","linear-radial coh [.2 .4 .6 .8]",8822,0.6
"1058",2,5,"radial",0.6,0,"L",1.9698,TRUE,8,2025,"Male","more.than.one","linear-radial coh [.2 .4 .6 .8]",8822,0.6
"1058",1,11,"radial",0.2,0," ",0,FALSE,8,2025,"Male","more.than.one","linear-radial coh [.2 .4 .6 .8]",8822,0.2
"1058",3,8,"radial",0.2,0,"L",2.2355,TRUE,2,2025,"Male","more.than.one","linear-radial coh [.2 .4 .6 .8]",8822,0.2
"1058",1,12,"radial",0,0.4,"R",2.3524,TRUE,8,2025,"Male","more.than.one","linear-radial coh [.2 .4 .6 .8]",8822,0.4
"1058",2,6,"linear",0.4,0,"L",3.1694,TRUE,8,2025,"Male","more.than.one","linear-radial coh [.2 .4 .6 .8]",8822,0.4
"1058",3,11,"radial",0,0.2,"R",3.0863,TRUE,2,2025,"Male","more.than.one","linear-radial coh [.2 .4 .6 .8]",8822,0.2
"1058",2,15,"radial",0.4,0,"L",2.7359,TRUE,8,2025,"Male","more.than.one","linear-radial coh [.2 .4 .6 .8]",8822,0.4
"1058",1,1,"linear",0,0.8,"R",2.9692,TRUE,8,2025,"Male","more.than.one","linear-radial coh [.2 .4 .6 .8]",8822,0.8
"1058",4,5,"radial",0,0.2,"R",4.2874,TRUE,2,2025,"Male","more.than.one","linear-radial coh [.2 .4 .6 .8]",8822,0.2
"1058",1,13,"linear",0.8,0,"L",3.3883,TRUE,8,2025,"Male","more.than.one","linear-radial coh [.2 .4 .6 .8]",8822,0.8
"1058",4,2,"radial",0.4,0,"L",4.0255,TRUE,2,2025,"Male","more.than.one","linear-radial coh [.2 .4 .6 .8]",8822,0.4
"1058",3,15,"linear",0.2,0,"L",3.724,TRUE,2,2025,"Male","more.than.one","linear-radial coh [.2 .4 .6 .8]",8822,0.2
"1058",1,5,"radial",0.6,0,"L",2.4917,TRUE,8,2025,"Male","more.than.one","linear-radial coh [.2 .4 .6 .8]",8822,0.6
"1058",1,5,"linear",0,0.4,"R",2.9861,TRUE,8,2025,"Male","more.than.one","linear-radial coh [.2 .4 .6 .8]",8822,0.4
"1058",4,12,"radial",0.8,0,"L",2.1687,TRUE,2,2025,"Male","more.than.one","linear-radial coh [.2 .4 .6 .8]",8822,0.8
"1058",2,12,"radial",0,0.4,"R",1.4176,TRUE,8,2025,"Male","more.than.one","linear-radial coh [.2 .4 .6 .8]",8822,0.4
"1058",3,10,"linear",0,0.6,"R",2.352,TRUE,2,2025,"Male","more.than.one","linear-radial coh [.2 .4 .6 .8]",8822,0.6
"1058",3,16,"linear",0,0.6,"R",3.0027,TRUE,2,2025,"Male","more.than.one","linear-radial coh [.2 .4 .6 .8]",8822,0.6
"1058",3,5,"linear",0.6,0,"L",3.5704,TRUE,2,2025,"Male","more.than.one","linear-radial coh [.2 .4 .6 .8]",8822,0.6
"1058",1,13,"linear",0,0.2,"R",7.0907,TRUE,8,2025,"Male","more.than.one","linear-radial coh [.2 .4 .6 .8]",8822,0.2
"1058",4,1,"linear",0,0.8,"R",4.3201,TRUE,2,2025,"Male","more.than.one","linear-radial coh [.2 .4 .6 .8]",8822,0.8
"1058",4,2,"radial",0,0.4,"R",2.769,TRUE,2,2025,"Male","more.than.one","linear-radial coh [.2 .4 .6 .8]",8822,0.4
"1058",2,15,"radial",0.4,0,"L",1.7363,TRUE,8,2025,"Male","more.than.one","linear-radial coh [.2 .4 .6 .8]",8822,0.4
"1058",2,7,"linear",0,0.6,"R",1.8516,TRUE,8,2025,"Male","more.than.one","linear-radial coh [.2 .4 .6 .8]",8822,0.6
"1058",3,13,"linear",0,0.2,"R",2.7522,TRUE,2,2025,"Male","more.than.one","linear-radial coh [.2 .4 .6 .8]",8822,0.2
"1058",3,14,"linear",0,0.4,"R",2.4354,TRUE,2,2025,"Male","more.than.one","linear-radial coh [.2 .4 .6 .8]",8822,0.4
"1058",2,10,"radial",0,0.2,"R",2.7527,TRUE,8,2025,"Male","more.than.one","linear-radial coh [.2 .4 .6 .8]",8822,0.2
"1058",3,4,"radial",0,0.2,"L",2.7286,FALSE,2,2025,"Male","more.than.one","linear-radial coh [.2 .4 .6 .8]",8822,0.2
"1058",2,4,"linear",0,0.4,"R",2.8361,TRUE,8,2025,"Male","more.than.one","linear-radial coh [.2 .4 .6 .8]",8822,0.4
"1058",1,14,"radial",0,0.2,"R",2.0854,TRUE,8,2025,"Male","more.than.one","linear-radial coh [.2 .4 .6 .8]",8822,0.2
"1058",2,7,"radial",0.2,0,"L",3.4862,TRUE,8,2025,"Male","more.than.one","linear-radial coh [.2 .4 .6 .8]",8822,0.2
"1058",1,2,"linear",0,0.4,"R",3.8702,TRUE,8,2025,"Male","more.than.one","linear-radial coh [.2 .4 .6 .8]",8822,0.4
"1058",3,9,"radial",0.2,0,"L",2.897,TRUE,2,2025,"Male","more.than.one","linear-radial coh [.2 .4 .6 .8]",8822,0.2
"1058",3,8,"radial",0,0.8,"R",1.4184,TRUE,2,2025,"Male","more.than.one","linear-radial coh [.2 .4 .6 .8]",8822,0.8
"1058",1,1,"radial",0,0.8,"R",2.3382,TRUE,8,2025,"Male","more.than.one","linear-radial coh [.2 .4 .6 .8]",8822,0.8
"1058",4,8,"radial",0.2,0,"L",3.553,TRUE,2,2025,"Male","more.than.one","linear-radial coh [.2 .4 .6 .8]",8822,0.2
"1058",1,8,"linear",0.4,0,"L",1.3177,TRUE,8,2025,"Male","more.than.one","linear-radial coh [.2 .4 .6 .8]",8822,0.4
"1058",3,13,"linear",0,0.2,"R",3.4202,TRUE,2,2025,"Male","more.than.one","linear-radial coh [.2 .4 .6 .8]",8822,0.2
"1058",3,2,"radial",0,0.4,"R",3.336,TRUE,2,2025,"Male","more.than.one","linear-radial coh [.2 .4 .6 .8]",8822,0.4
"1058",3,16,"radial",0,0.6,"R",2.1689,TRUE,2,2025,"Male","more.than.one","linear-radial coh [.2 .4 .6 .8]",8822,0.6
"1058",4,12,"linear",0.2,0,"L",3.5697,TRUE,2,2025,"Male","more.than.one","linear-radial coh [.2 .4 .6 .8]",8822,0.2
"1058",4,13,"linear",0,0.6,"R",5.7384,TRUE,2,2025,"Male","more.than.one","linear-radial coh [.2 .4 .6 .8]",8822,0.6
"1058",2,11,"radial",0.4,0,"L",3.2197,TRUE,8,2025,"Male","more.than.one","linear-radial coh [.2 .4 .6 .8]",8822,0.4
"1058",1,12,"radial",0,0.2,"R",4.8062,TRUE,8,2025,"Male","more.than.one","linear-radial coh [.2 .4 .6 .8]",8822,0.2
"1058",2,12,"radial",0,0.4,"R",1.5854,TRUE,8,2025,"Male","more.than.one","linear-radial coh [.2 .4 .6 .8]",8822,0.4
"1058",4,3,"radial",0,0.4,"R",3.2408,TRUE,2,2025,"Male","more.than.one","linear-radial coh [.2 .4 .6 .8]",8822,0.4
"1058",2,8,"linear",0,0.6,"R",2.3519,TRUE,8,2025,"Male","more.than.one","linear-radial coh [.2 .4 .6 .8]",8822,0.6
"1058",1,2,"linear",0,0.4,"R",4.2901,TRUE,8,2025,"Male","more.than.one","linear-radial coh [.2 .4 .6 .8]",8822,0.4
"1058",4,6,"radial",0.6,0,"L",1.9852,TRUE,2,2025,"Male","more.than.one","linear-radial coh [.2 .4 .6 .8]",8822,0.6
"1058",4,1,"linear",0,0.8,"R",1.5348,TRUE,2,2025,"Male","more.than.one","linear-radial coh [.2 .4 .6 .8]",8822,0.8
"1058",2,4,"linear",0,0.8,"R",1.602,TRUE,8,2025,"Male","more.than.one","linear-radial coh [.2 .4 .6 .8]",8822,0.8
"1058",1,12,"linear",0,0.6,"R",2.2853,TRUE,8,2025,"Male","more.than.one","linear-radial coh [.2 .4 .6 .8]",8822,0.6
"1058",1,4,"radial",0,0.6,"R",2.2855,TRUE,8,2025,"Male","more.than.one","linear-radial coh [.2 .4 .6 .8]",8822,0.6
"1058",2,3,"radial",0,0.8,"R",1.4693,TRUE,8,2025,"Male","more.than.one","linear-radial coh [.2 .4 .6 .8]",8822,0.8
"1058",1,9,"radial",0.8,0,"L",2.2369,TRUE,8,2025,"Male","more.than.one","linear-radial coh [.2 .4 .6 .8]",8822,0.8
"1058",2,10,"linear",0.6,0,"L",1.5182,TRUE,8,2025,"Male","more.than.one","linear-radial coh [.2 .4 .6 .8]",8822,0.6
"1058",4,9,"linear",0.2,0,"R",2.9194,FALSE,2,2025,"Male","more.than.one","linear-radial coh [.2 .4 .6 .8]",8822,0.2
"1058",1,2,"radial",0,0.8,"R",4.3878,TRUE,8,2025,"Male","more.than.one","linear-radial coh [.2 .4 .6 .8]",8822,0.8
"1058",2,1,"linear",0,0.8,"R",2.5581,TRUE,8,2025,"Male","more.than.one","linear-radial coh [.2 .4 .6 .8]",8822,0.8
"1058",2,1,"radial",0,0.8,"R",1.5556,TRUE,8,2025,"Male","more.than.one","linear-radial coh [.2 .4 .6 .8]",8822,0.8
"1058",1,1,"linear",0,0.8,"R",3.8378,TRUE,8,2025,"Male","more.than.one","linear-radial coh [.2 .4 .6 .8]",8822,0.8
"1058",2,11,"radial",0.2,0,"L",1.5749,TRUE,8,2025,"Male","more.than.one","linear-radial coh [.2 .4 .6 .8]",8822,0.2
"1058",2,4,"radial",0,0.6,"R",1.5188,TRUE,8,2025,"Male","more.than.one","linear-radial coh [.2 .4 .6 .8]",8822,0.6
"1058",1,8,"radial",0.2,0,"L",5.0043,TRUE,8,2025,"Male","more.than.one","linear-radial coh [.2 .4 .6 .8]",8822,0.2
"1058",4,6,"linear",0.4,0,"L",5.0541,TRUE,2,2025,"Male","more.than.one","linear-radial coh [.2 .4 .6 .8]",8822,0.4
"1058",2,11,"radial",0.4,0,"R",4.3377,FALSE,8,2025,"Male","more.than.one","linear-radial coh [.2 .4 .6 .8]",8822,0.4
"1058",4,5,"radial",0.8,0,"L",1.9185,TRUE,2,2025,"Male","more.than.one","linear-radial coh [.2 .4 .6 .8]",8822,0.8
"1058",3,4,"linear",0.8,0,"L",3.9204,TRUE,2,2025,"Male","more.than.one","linear-radial coh [.2 .4 .6 .8]",8822,0.8
"1058",2,11,"linear",0.8,0,"L",1.7347,TRUE,8,2025,"Male","more.than.one","linear-radial coh [.2 .4 .6 .8]",8822,0.8
"1058",1,11,"radial",0.4,0,"L",1.7411,TRUE,8,2025,"Male","more.than.one","linear-radial coh [.2 .4 .6 .8]",8822,0.4
"1058",1,4,"linear",0,0.8,"R",1.2721,TRUE,8,2025,"Male","more.than.one","linear-radial coh [.2 .4 .6 .8]",8822,0.8
"1058",1,5,"radial",0.6,0,"L",2.3035,TRUE,8,2025,"Male","more.than.one","linear-radial coh [.2 .4 .6 .8]",8822,0.6
"1058",3,6,"linear",0.4,0,"L",2.7859,TRUE,2,2025,"Male","more.than.one","linear-radial coh [.2 .4 .6 .8]",8822,0.4
"1058",1,3,"radial",0,0.6,"R",1.9385,TRUE,8,2025,"Male","more.than.one","linear-radial coh [.2 .4 .6 .8]",8822,0.6
"1058",1,15,"linear",0,0.2,"R",1.835,TRUE,8,2025,"Male","more.than.one","linear-radial coh [.2 .4 .6 .8]",8822,0.2
"1058",1,13,"linear",0.8,0,"L",2.0689,TRUE,8,2025,"Male","more.than.one","linear-radial coh [.2 .4 .6 .8]",8822,0.8
"1058",4,16,"linear",0,0.6,"R",1.1355,TRUE,2,2025,"Male","more.than.one","linear-radial coh [.2 .4 .6 .8]",8822,0.6
"1058",4,12,"linear",0.4,0,"L",2.1896,TRUE,2,2025,"Male","more.than.one","linear-radial coh [.2 .4 .6 .8]",8822,0.4
"1058",2,4,"linear",0,0.4,"R",2.6857,TRUE,8,2025,"Male","more.than.one","linear-radial coh [.2 .4 .6 .8]",8822,0.4
"1058",2,1,"radial",0,0.8,"R",1.2011,TRUE,8,2025,"Male","more.than.one","linear-radial coh [.2 .4 .6 .8]",8822,0.8
"1058",2,3,"radial",0,0.8,"R",2.1685,TRUE,8,2025,"Male","more.than.one","linear-radial coh [.2 .4 .6 .8]",8822,0.8
"1058",2,12,"radial",0,0.2,"R",7.0224,TRUE,8,2025,"Male","more.than.one","linear-radial coh [.2 .4 .6 .8]",8822,0.2
"1058",3,4,"radial",0,0.4,"R",2.1184,TRUE,2,2025,"Male","more.than.one","linear-radial coh [.2 .4 .6 .8]",8822,0.4
"1058",2,6,"radial",0.6,0,"L",1.5182,TRUE,8,2025,"Male","more.than.one","linear-radial coh [.2 .4 .6 .8]",8822,0.6
"1058",2,2,"linear",0,0.4,"R",2.5702,TRUE,8,2025,"Male","more.than.one","linear-radial coh [.2 .4 .6 .8]",8822,0.4
"1058",4,5,"radial",0.8,0,"L",1.3014,TRUE,2,2025,"Male","more.than.one","linear-radial coh [.2 .4 .6 .8]",8822,0.8
"1058",3,3,"linear",0,0.8,"R",3.8032,TRUE,2,2025,"Male","more.than.one","linear-radial coh [.2 .4 .6 .8]",8822,0.8
"1058",4,10,"radial",0,0.6,"R",2.0186,TRUE,2,2025,"Male","more.than.one","linear-radial coh [.2 .4 .6 .8]",8822,0.6
"1058",2,14,"radial",0,0.2,"R",2.2067,TRUE,8,2025,"Male","more.than.one","linear-radial coh [.2 .4 .6 .8]",8822,0.2
"1058",1,1,"radial",0,0.8,"R",1.8361,TRUE,8,2025,"Male","more.than.one","linear-radial coh [.2 .4 .6 .8]",8822,0.8
"1058",1,6,"linear",0.4,0,"L",5.5897,TRUE,8,2025,"Male","more.than.one","linear-radial coh [.2 .4 .6 .8]",8822,0.4
"1058",1,8,"linear",0,0.6,"R",1.985,TRUE,8,2025,"Male","more.than.one","linear-radial coh [.2 .4 .6 .8]",8822,0.6
"1058",4,7,"linear",0.8,0,"L",1.6881,TRUE,2,2025,"Male","more.than.one","linear-radial coh [.2 .4 .6 .8]",8822,0.8
"1058",4,12,"linear",0.4,0,"L",2.0913,TRUE,2,2025,"Male","more.than.one","linear-radial coh [.2 .4 .6 .8]",8822,0.4
"1058",1,4,"radial",0,0.6,"R",1.9851,TRUE,8,2025,"Male","more.than.one","linear-radial coh [.2 .4 .6 .8]",8822,0.6
"1058",3,16,"linear",0,0.6,"R",1.1535,TRUE,2,2025,"Male","more.than.one","linear-radial coh [.2 .4 .6 .8]",8822,0.6
"1058",4,15,"linear",0.2,0,"L",4.8211,TRUE,2,2025,"Male","more.than.one","linear-radial coh [.2 .4 .6 .8]",8822,0.2
"1058",2,6,"radial",0.8,0,"L",1.3251,TRUE,8,2025,"Male","more.than.one","linear-radial coh [.2 .4 .6 .8]",8822,0.8
"1058",4,11,"radial",0,0.2,"R",4.604,TRUE,2,2025,"Male","more.than.one","linear-radial coh [.2 .4 .6 .8]",8822,0.2
"1058",2,8,"radial",0.2,0,"L",1.8349,TRUE,8,2025,"Male","more.than.one","linear-radial coh [.2 .4 .6 .8]",8822,0.2
"1058",1,3,"linear",0,0.8,"R",1.4179,TRUE,8,2025,"Male","more.than.one","linear-radial coh [.2 .4 .6 .8]",8822,0.8
"1058",3,1,"linear",0,0.8,"R",3.909,TRUE,2,2025,"Male","more.than.one","linear-radial coh [.2 .4 .6 .8]",8822,0.8
"1058",4,16,"linear",0,0.6,"R",2.6022,TRUE,2,2025,"Male","more.than.one","linear-radial coh [.2 .4 .6 .8]",8822,0.6
"1058",2,14,"linear",0,0.2,"R",2.9861,TRUE,8,2025,"Male","more.than.one","linear-radial coh [.2 .4 .6 .8]",8822,0.2
"1058",3,12,"linear",0.2,0,"R",4.7877,FALSE,2,2025,"Male","more.than.one","linear-radial coh [.2 .4 .6 .8]",8822,0.2
"1058",1,14,"linear",0.6,0,"L",3.0028,TRUE,8,2025,"Male","more.than.one","linear-radial coh [.2 .4 .6 .8]",8822,0.6
"1058",3,1,"linear",0,0.8,"R",1.4964,TRUE,2,2025,"Male","more.than.one","linear-radial coh [.2 .4 .6 .8]",8822,0.8
"1058",2,10,"linear",0.6,0,"L",1.823,TRUE,8,2025,"Male","more.than.one","linear-radial coh [.2 .4 .6 .8]",8822,0.6
"1058",3,4,"linear",0.8,0,"L",1.4847,TRUE,2,2025,"Male","more.than.one","linear-radial coh [.2 .4 .6 .8]",8822,0.8
"1058",3,12,"radial",0.8,0,"L",1.3682,TRUE,2,2025,"Male","more.than.one","linear-radial coh [.2 .4 .6 .8]",8822,0.8
"1058",3,15,"linear",0.2,0,"L",4.8043,TRUE,2,2025,"Male","more.than.one","linear-radial coh [.2 .4 .6 .8]",8822,0.2
"1058",4,14,"radial",0,0.8,"R",1.2347,TRUE,2,2025,"Male","more.than.one","linear-radial coh [.2 .4 .6 .8]",8822,0.8
"1058",1,16,"linear",0.2,0,"L",6.1053,TRUE,8,2025,"Male","more.than.one","linear-radial coh [.2 .4 .6 .8]",8822,0.2
"1058",3,3,"radial",0.4,0,"L",2.9526,TRUE,2,2025,"Male","more.than.one","linear-radial coh [.2 .4 .6 .8]",8822,0.4
"1058",3,10,"radial",0.2,0,"R",4.5038,FALSE,2,2025,"Male","more.than.one","linear-radial coh [.2 .4 .6 .8]",8822,0.2
"1058",3,4,"linear",0,0.8,"R",6.5056,TRUE,2,2025,"Male","more.than.one","linear-radial coh [.2 .4 .6 .8]",8822,0.8
"1058",2,4,"radial",0,0.6,"R",1.2848,TRUE,8,2025,"Male","more.than.one","linear-radial coh [.2 .4 .6 .8]",8822,0.6
"1058",1,15,"radial",0.4,0,"L",4.7709,TRUE,8,2025,"Male","more.than.one","linear-radial coh [.2 .4 .6 .8]",8822,0.4
"1058",4,14,"radial",0,0.8,"R",1.4355,TRUE,2,2025,"Male","more.than.one","linear-radial coh [.2 .4 .6 .8]",8822,0.8
"1058",3,14,"linear",0,0.4,"R",2.3188,TRUE,2,2025,"Male","more.than.one","linear-radial coh [.2 .4 .6 .8]",8822,0.4
"1058",2,16,"linear",0.2,0,"L",3.5228,TRUE,8,2025,"Male","more.than.one","linear-radial coh [.2 .4 .6 .8]",8822,0.2
"1058",1,11,"linear",0.8,0,"L",2.3688,TRUE,8,2025,"Male","more.than.one","linear-radial coh [.2 .4 .6 .8]",8822,0.8
"1058",2,12,"linear",0,0.6,"R",3.0695,TRUE,8,2025,"Male","more.than.one","linear-radial coh [.2 .4 .6 .8]",8822,0.6
"1058",3,1,"linear",0,0.8,"R",1.5691,TRUE,2,2025,"Male","more.than.one","linear-radial coh [.2 .4 .6 .8]",8822,0.8
"1058",2,9,"radial",0,0.4,"R",2.2385,TRUE,8,2025,"Male","more.than.one","linear-radial coh [.2 .4 .6 .8]",8822,0.4
"1058",4,3,"radial",0.4,0,"L",2.1356,TRUE,2,2025,"Male","more.than.one","linear-radial coh [.2 .4 .6 .8]",8822,0.4
"1058",4,3,"radial",0,0.4,"R",1.7517,TRUE,2,2025,"Male","more.than.one","linear-radial coh [.2 .4 .6 .8]",8822,0.4
"1058",2,16,"linear",0.2,0,"R",3.4916,FALSE,8,2025,"Male","more.than.one","linear-radial coh [.2 .4 .6 .8]",8822,0.2
"1058",2,6,"radial",0.8,0,"L",1.5182,TRUE,8,2025,"Male","more.than.one","linear-radial coh [.2 .4 .6 .8]",8822,0.8
"1058",3,7,"radial",0,0.8,"R",2.7572,TRUE,2,2025,"Male","more.than.one","linear-radial coh [.2 .4 .6 .8]",8822,0.8
"1058",2,14,"linear",0.6,0,"L",5.1774,TRUE,8,2025,"Male","more.than.one","linear-radial coh [.2 .4 .6 .8]",8822,0.6
"1058",2,10,"radial",0,0.2,"R",2.8523,TRUE,8,2025,"Male","more.than.one","linear-radial coh [.2 .4 .6 .8]",8822,0.2
"1058",1,11,"radial",0.4,0,"L",2.457,TRUE,8,2025,"Male","more.than.one","linear-radial coh [.2 .4 .6 .8]",8822,0.4
"1058",4,8,"linear",0.6,0,"L",5.2711,TRUE,2,2025,"Male","more.than.one","linear-radial coh [.2 .4 .6 .8]",8822,0.6
"1058",4,4,"radial",0,0.4,"R",1.835,TRUE,2,2025,"Male","more.than.one","linear-radial coh [.2 .4 .6 .8]",8822,0.4
"1058",3,7,"radial",0.6,0,"L",1.7126,TRUE,2,2025,"Male","more.than.one","linear-radial coh [.2 .4 .6 .8]",8822,0.6
"1058",1,9,"linear",0,0.6,"R",1.6019,TRUE,8,2025,"Male","more.than.one","linear-radial coh [.2 .4 .6 .8]",8822,0.6
