"","ParticipantID","SessionDate","Block","Trial","PatternType","LeftCoh","RightCoh","Response","RT","Acc","Coh","Run","DegPSec","Gender","Race","Ethnicity","Language","Setting","State","SpeedOrder","AgeYears","Age","SubID","Speed"
"1",1,"Oct-2014",1,1,"linear",0.1,0,"L",3.0539,TRUE,0.1,1,2,"Male","White","Not Hispanic or Latino","English","Lab","PA","2-8",21.86447639,21.86447639,1,2
"2",1,"Oct-2014",1,1,"radial",0.15,0,"L",3.402,TRUE,0.15,2,8,"Male","White","Not Hispanic or Latino","English","Lab","PA","2-8",21.86447639,21.86447639,1,8
"3",1,"Oct-2014",1,2,"linear",0.2,0,"L",0.85076,TRUE,0.2,1,2,"Male","White","Not Hispanic or Latino","English","Lab","PA","2-8",21.86447639,21.86447639,1,2
"4",1,"Oct-2014",1,2,"radial",0.1,0,"R",1.5851,FALSE,0.1,2,8,"Male","White","Not Hispanic or Latino","English","Lab","PA","2-8",21.86447639,21.86447639,1,8
"5",1,"Oct-2014",1,3,"radial",0.2,0,"L",1.0013,TRUE,0.2,1,2,"Male","White","Not Hispanic or Latino","English","Lab","PA","2-8",21.86447639,21.86447639,1,2
"6",1,"Oct-2014",1,3,"radial",0,0.15,"R",2.286,TRUE,0.15,2,8,"Male","White","Not Hispanic or Latino","English","Lab","PA","2-8",21.86447639,21.86447639,1,8
"7",1,"Oct-2014",1,4,"linear",0.05,0,"L",1.1344,TRUE,0.05,1,2,"Male","White","Not Hispanic or Latino","English","Lab","PA","2-8",21.86447639,21.86447639,1,2
"8",1,"Oct-2014",1,4,"radial",0,0.2,"L",2.8856,FALSE,0.2,2,8,"Male","White","Not Hispanic or Latino","English","Lab","PA","2-8",21.86447639,21.86447639,1,8
"9",1,"Oct-2014",1,5,"linear",0,0.2,"R",1.0344,TRUE,0.2,1,2,"Male","White","Not Hispanic or Latino","English","Lab","PA","2-8",21.86447639,21.86447639,1,2
"10",1,"Oct-2014",1,5,"radial",0.05,0,"R",2.8529,FALSE,0.05,2,8,"Male","White","Not Hispanic or Latino","English","Lab","PA","2-8",21.86447639,21.86447639,1,8
"11",1,"Oct-2014",1,6,"radial",0,0.05,"L",1.1844,FALSE,0.05,1,2,"Male","White","Not Hispanic or Latino","English","Lab","PA","2-8",21.86447639,21.86447639,1,2
"12",1,"Oct-2014",1,6,"linear",0.2,0,"L",1.0343,TRUE,0.2,2,8,"Male","White","Not Hispanic or Latino","English","Lab","PA","2-8",21.86447639,21.86447639,1,8
"13",1,"Oct-2014",1,7,"radial",0,0.2,"R",1.0174,TRUE,0.2,1,2,"Male","White","Not Hispanic or Latino","English","Lab","PA","2-8",21.86447639,21.86447639,1,2
"14",1,"Oct-2014",1,7,"linear",0,0.1,"L",2.4021,FALSE,0.1,2,8,"Male","White","Not Hispanic or Latino","English","Lab","PA","2-8",21.86447639,21.86447639,1,8
"15",1,"Oct-2014",1,8,"linear",0,0.15,"L",1.0178,FALSE,0.15,1,2,"Male","White","Not Hispanic or Latino","English","Lab","PA","2-8",21.86447639,21.86447639,1,2
"16",1,"Oct-2014",1,8,"linear",0.15,0,"L",1.0679,TRUE,0.15,2,8,"Male","White","Not Hispanic or Latino","English","Lab","PA","2-8",21.86447639,21.86447639,1,8
"17",1,"Oct-2014",1,9,"radial",0,0.15,"L",1.402,FALSE,0.15,1,2,"Male","White","Not Hispanic or Latino","English","Lab","PA","2-8",21.86447639,21.86447639,1,2
"18",1,"Oct-2014",1,9,"radial",0,0.1,"R",3.7867,TRUE,0.1,2,8,"Male","White","Not Hispanic or Latino","English","Lab","PA","2-8",21.86447639,21.86447639,1,8
"19",1,"Oct-2014",1,10,"linear",0,0.1,"L",1.939,FALSE,0.1,1,2,"Male","White","Not Hispanic or Latino","English","Lab","PA","2-8",21.86447639,21.86447639,1,2
"20",1,"Oct-2014",1,10,"linear",0.05,0,"L",2.769,TRUE,0.05,2,8,"Male","White","Not Hispanic or Latino","English","Lab","PA","2-8",21.86447639,21.86447639,1,8
"21",1,"Oct-2014",1,11,"radial",0.05,0,"R",2.3854,FALSE,0.05,1,2,"Male","White","Not Hispanic or Latino","English","Lab","PA","2-8",21.86447639,21.86447639,1,2
"22",1,"Oct-2014",1,11,"radial",0,0.05,"R",2.586,TRUE,0.05,2,8,"Male","White","Not Hispanic or Latino","English","Lab","PA","2-8",21.86447639,21.86447639,1,8
"23",1,"Oct-2014",1,12,"linear",0,0.05,"L",2.1412,FALSE,0.05,1,2,"Male","White","Not Hispanic or Latino","English","Lab","PA","2-8",21.86447639,21.86447639,1,2
"24",1,"Oct-2014",1,12,"radial",0.2,0,"L",0.9842,TRUE,0.2,2,8,"Male","White","Not Hispanic or Latino","English","Lab","PA","2-8",21.86447639,21.86447639,1,8
"25",1,"Oct-2014",1,13,"radial",0.15,0,"L",1.1919,TRUE,0.15,1,2,"Male","White","Not Hispanic or Latino","English","Lab","PA","2-8",21.86447639,21.86447639,1,2
"26",1,"Oct-2014",1,13,"linear",0,0.15,"L",1.2845,FALSE,0.15,2,8,"Male","White","Not Hispanic or Latino","English","Lab","PA","2-8",21.86447639,21.86447639,1,8
"27",1,"Oct-2014",1,14,"linear",0.15,0,"L",0.88476,TRUE,0.15,1,2,"Male","White","Not Hispanic or Latino","English","Lab","PA","2-8",21.86447639,21.86447639,1,2
"28",1,"Oct-2014",1,14,"linear",0,0.2,"R",0.90121,TRUE,0.2,2,8,"Male","White","Not Hispanic or Latino","English","Lab","PA","2-8",21.86447639,21.86447639,1,8
"29",1,"Oct-2014",1,15,"radial",0,0.1,"L",2.0746,FALSE,0.1,1,2,"Male","White","Not Hispanic or Latino","English","Lab","PA","2-8",21.86447639,21.86447639,1,2
"30",1,"Oct-2014",1,15,"linear",0.1,0,"R",3.7207,FALSE,0.1,2,8,"Male","White","Not Hispanic or Latino","English","Lab","PA","2-8",21.86447639,21.86447639,1,8
"31",1,"Oct-2014",1,16,"radial",0.1,0,"R",2.1296,FALSE,0.1,1,2,"Male","White","Not Hispanic or Latino","English","Lab","PA","2-8",21.86447639,21.86447639,1,2
"32",1,"Oct-2014",1,16,"linear",0,0.05,"R",3.4867,TRUE,0.05,2,8,"Male","White","Not Hispanic or Latino","English","Lab","PA","2-8",21.86447639,21.86447639,1,8
"33",1,"Oct-2014",2,1,"radial",0.2,0,"L",1.2012,TRUE,0.2,1,2,"Male","White","Not Hispanic or Latino","English","Lab","PA","2-8",21.86447639,21.86447639,1,2
"34",1,"Oct-2014",2,1,"linear",0.2,0,"L",0.95093,TRUE,0.2,2,8,"Male","White","Not Hispanic or Latino","English","Lab","PA","2-8",21.86447639,21.86447639,1,8
"35",1,"Oct-2014",2,2,"linear",0.1,0,"L",1.3216,TRUE,0.1,1,2,"Male","White","Not Hispanic or Latino","English","Lab","PA","2-8",21.86447639,21.86447639,1,2
"36",1,"Oct-2014",2,2,"radial",0.15,0,"L",1.2012,TRUE,0.15,2,8,"Male","White","Not Hispanic or Latino","English","Lab","PA","2-8",21.86447639,21.86447639,1,8
"37",1,"Oct-2014",2,3,"linear",0.2,0,"L",0.86772,TRUE,0.2,1,2,"Male","White","Not Hispanic or Latino","English","Lab","PA","2-8",21.86447639,21.86447639,1,2
"38",1,"Oct-2014",2,3,"linear",0,0.1,"L",NA,FALSE,0.1,2,8,"Male","White","Not Hispanic or Latino","English","Lab","PA","2-8",21.86447639,21.86447639,1,8
"39",1,"Oct-2014",2,4,"linear",0.05,0,"R",NA,FALSE,0.05,1,2,"Male","White","Not Hispanic or Latino","English","Lab","PA","2-8",21.86447639,21.86447639,1,2
"40",1,"Oct-2014",2,4,"radial",0.1,0,"L",1.3445,TRUE,0.1,2,8,"Male","White","Not Hispanic or Latino","English","Lab","PA","2-8",21.86447639,21.86447639,1,8
"41",1,"Oct-2014",2,5,"linear",0,0.2,"R",0.90089,TRUE,0.2,1,2,"Male","White","Not Hispanic or Latino","English","Lab","PA","2-8",21.86447639,21.86447639,1,2
"42",1,"Oct-2014",2,5,"radial",0,0.15,"R",1.4514,TRUE,0.15,2,8,"Male","White","Not Hispanic or Latino","English","Lab","PA","2-8",21.86447639,21.86447639,1,8
"43",1,"Oct-2014",2,6,"radial",0,0.05,"L",1.4181,FALSE,0.05,1,2,"Male","White","Not Hispanic or Latino","English","Lab","PA","2-8",21.86447639,21.86447639,1,2
"44",1,"Oct-2014",2,6,"linear",0.15,0,"L",1.001,TRUE,0.15,2,8,"Male","White","Not Hispanic or Latino","English","Lab","PA","2-8",21.86447639,21.86447639,1,8
"45",1,"Oct-2014",2,7,"radial",0,0.2,"R",0.95096,TRUE,0.2,1,2,"Male","White","Not Hispanic or Latino","English","Lab","PA","2-8",21.86447639,21.86447639,1,2
"46",1,"Oct-2014",2,7,"radial",0,0.2,"R",1.1009,TRUE,0.2,2,8,"Male","White","Not Hispanic or Latino","English","Lab","PA","2-8",21.86447639,21.86447639,1,8
"47",1,"Oct-2014",2,8,"linear",0,0.15,"R",1.835,TRUE,0.15,1,2,"Male","White","Not Hispanic or Latino","English","Lab","PA","2-8",21.86447639,21.86447639,1,2
"48",1,"Oct-2014",2,8,"radial",0.05,0,"R",1.3345,FALSE,0.05,2,8,"Male","White","Not Hispanic or Latino","English","Lab","PA","2-8",21.86447639,21.86447639,1,8
"49",1,"Oct-2014",2,9,"linear",0,0.1,"L",1.7683,FALSE,0.1,1,2,"Male","White","Not Hispanic or Latino","English","Lab","PA","2-8",21.86447639,21.86447639,1,2
"50",1,"Oct-2014",2,9,"radial",0,0.1,"R",2.1871,TRUE,0.1,2,8,"Male","White","Not Hispanic or Latino","English","Lab","PA","2-8",21.86447639,21.86447639,1,8
"51",1,"Oct-2014",2,10,"radial",0,0.15,"R",0.93426,TRUE,0.15,1,2,"Male","White","Not Hispanic or Latino","English","Lab","PA","2-8",21.86447639,21.86447639,1,2
"52",1,"Oct-2014",2,10,"linear",0.05,0,"L",1.2845,TRUE,0.05,2,8,"Male","White","Not Hispanic or Latino","English","Lab","PA","2-8",21.86447639,21.86447639,1,8
"53",1,"Oct-2014",2,11,"radial",0.05,0,"R",2.2852,FALSE,0.05,1,2,"Male","White","Not Hispanic or Latino","English","Lab","PA","2-8",21.86447639,21.86447639,1,2
"54",1,"Oct-2014",2,11,"radial",0,0.05,"L",2.7857,FALSE,0.05,2,8,"Male","White","Not Hispanic or Latino","English","Lab","PA","2-8",21.86447639,21.86447639,1,8
"55",1,"Oct-2014",2,12,"radial",0.15,0,"L",0.96759,TRUE,0.15,1,2,"Male","White","Not Hispanic or Latino","English","Lab","PA","2-8",21.86447639,21.86447639,1,2
"56",1,"Oct-2014",2,12,"linear",0,0.15,"R",1.5678,TRUE,0.15,2,8,"Male","White","Not Hispanic or Latino","English","Lab","PA","2-8",21.86447639,21.86447639,1,8
"57",1,"Oct-2014",2,13,"linear",0,0.05,"R",3.1377,TRUE,0.05,1,2,"Male","White","Not Hispanic or Latino","English","Lab","PA","2-8",21.86447639,21.86447639,1,2
"58",1,"Oct-2014",2,13,"linear",0,0.2,"R",1.1344,TRUE,0.2,2,8,"Male","White","Not Hispanic or Latino","English","Lab","PA","2-8",21.86447639,21.86447639,1,8
"59",1,"Oct-2014",2,14,"radial",0,0.1,"L",1.8408,FALSE,0.1,1,2,"Male","White","Not Hispanic or Latino","English","Lab","PA","2-8",21.86447639,21.86447639,1,2
"60",1,"Oct-2014",2,14,"linear",0.1,0,"L",1.835,TRUE,0.1,2,8,"Male","White","Not Hispanic or Latino","English","Lab","PA","2-8",21.86447639,21.86447639,1,8
"61",1,"Oct-2014",2,15,"radial",0.1,0,"L",2.869,TRUE,0.1,1,2,"Male","White","Not Hispanic or Latino","English","Lab","PA","2-8",21.86447639,21.86447639,1,2
"62",1,"Oct-2014",2,15,"radial",0.2,0,"L",0.90094,TRUE,0.2,2,8,"Male","White","Not Hispanic or Latino","English","Lab","PA","2-8",21.86447639,21.86447639,1,8
"63",1,"Oct-2014",2,16,"linear",0.15,0,"L",1.0873,TRUE,0.15,1,2,"Male","White","Not Hispanic or Latino","English","Lab","PA","2-8",21.86447639,21.86447639,1,2
"64",1,"Oct-2014",2,16,"linear",0,0.05,"R",NA,TRUE,0.05,2,8,"Male","White","Not Hispanic or Latino","English","Lab","PA","2-8",21.86447639,21.86447639,1,8
"65",1,"Oct-2014",3,1,"radial",0.2,0,"L",0.98428,TRUE,0.2,1,2,"Male","White","Not Hispanic or Latino","English","Lab","PA","2-8",21.86447639,21.86447639,1,2
"66",1,"Oct-2014",3,1,"radial",0.15,0,"L",1.8348,TRUE,0.15,2,8,"Male","White","Not Hispanic or Latino","English","Lab","PA","2-8",21.86447639,21.86447639,1,8
"67",1,"Oct-2014",3,2,"radial",0,0.05,"L",1.0511,FALSE,0.05,1,2,"Male","White","Not Hispanic or Latino","English","Lab","PA","2-8",21.86447639,21.86447639,1,2
"68",1,"Oct-2014",3,2,"radial",0.1,0,"L",2.1386,TRUE,0.1,2,8,"Male","White","Not Hispanic or Latino","English","Lab","PA","2-8",21.86447639,21.86447639,1,8
"69",1,"Oct-2014",3,3,"radial",0,0.2,"R",0.83418,TRUE,0.2,1,2,"Male","White","Not Hispanic or Latino","English","Lab","PA","2-8",21.86447639,21.86447639,1,2
"70",1,"Oct-2014",3,3,"radial",0,0.15,"R",1.001,TRUE,0.15,2,8,"Male","White","Not Hispanic or Latino","English","Lab","PA","2-8",21.86447639,21.86447639,1,8
"71",1,"Oct-2014",3,4,"radial",0,0.15,"R",1.7348,TRUE,0.15,1,2,"Male","White","Not Hispanic or Latino","English","Lab","PA","2-8",21.86447639,21.86447639,1,2
"72",1,"Oct-2014",3,4,"radial",0,0.2,"R",1.0356,TRUE,0.2,2,8,"Male","White","Not Hispanic or Latino","English","Lab","PA","2-8",21.86447639,21.86447639,1,8
"73",1,"Oct-2014",3,5,"linear",0.1,0,"R",2.686,FALSE,0.1,1,2,"Male","White","Not Hispanic or Latino","English","Lab","PA","2-8",21.86447639,21.86447639,1,2
"74",1,"Oct-2014",3,5,"radial",0.05,0,"R",1.568,FALSE,0.05,2,8,"Male","White","Not Hispanic or Latino","English","Lab","PA","2-8",21.86447639,21.86447639,1,8
"75",1,"Oct-2014",3,6,"linear",0.2,0,"L",1.151,TRUE,0.2,1,2,"Male","White","Not Hispanic or Latino","English","Lab","PA","2-8",21.86447639,21.86447639,1,2
"76",1,"Oct-2014",3,6,"radial",0,0.1,"R",1.3552,TRUE,0.1,2,8,"Male","White","Not Hispanic or Latino","English","Lab","PA","2-8",21.86447639,21.86447639,1,8
"77",1,"Oct-2014",3,7,"linear",0.05,0,"R",2.7523,FALSE,0.05,1,2,"Male","White","Not Hispanic or Latino","English","Lab","PA","2-8",21.86447639,21.86447639,1,2
"78",1,"Oct-2014",3,7,"radial",0,0.05,"L",2.5358,FALSE,0.05,2,8,"Male","White","Not Hispanic or Latino","English","Lab","PA","2-8",21.86447639,21.86447639,1,8
"79",1,"Oct-2014",3,8,"linear",0,0.2,"L",1.1344,FALSE,0.2,1,2,"Male","White","Not Hispanic or Latino","English","Lab","PA","2-8",21.86447639,21.86447639,1,2
"80",1,"Oct-2014",3,8,"linear",0.2,0,"L",0.88424,TRUE,0.2,2,8,"Male","White","Not Hispanic or Latino","English","Lab","PA","2-8",21.86447639,21.86447639,1,8
"81",1,"Oct-2014",3,9,"linear",0,0.15,"R",1.0009,TRUE,0.15,1,2,"Male","White","Not Hispanic or Latino","English","Lab","PA","2-8",21.86447639,21.86447639,1,2
"82",1,"Oct-2014",3,9,"linear",0,0.1,"L",0.98445,FALSE,0.1,2,8,"Male","White","Not Hispanic or Latino","English","Lab","PA","2-8",21.86447639,21.86447639,1,8
"83",1,"Oct-2014",3,10,"radial",0.05,0,"L",3.2201,TRUE,0.05,1,2,"Male","White","Not Hispanic or Latino","English","Lab","PA","2-8",21.86447639,21.86447639,1,2
"84",1,"Oct-2014",3,10,"radial",0.2,0,"L",1.1518,TRUE,0.2,2,8,"Male","White","Not Hispanic or Latino","English","Lab","PA","2-8",21.86447639,21.86447639,1,8
"85",1,"Oct-2014",3,11,"radial",0.15,0,"L",1.3346,TRUE,0.15,1,2,"Male","White","Not Hispanic or Latino","English","Lab","PA","2-8",21.86447639,21.86447639,1,2
"86",1,"Oct-2014",3,11,"linear",0.15,0,"L",1.301,TRUE,0.15,2,8,"Male","White","Not Hispanic or Latino","English","Lab","PA","2-8",21.86447639,21.86447639,1,8
"87",1,"Oct-2014",3,12,"radial",0,0.1,"R",2.8863,TRUE,0.1,1,2,"Male","White","Not Hispanic or Latino","English","Lab","PA","2-8",21.86447639,21.86447639,1,2
"88",1,"Oct-2014",3,12,"linear",0.05,0,"L",1.3919,TRUE,0.05,2,8,"Male","White","Not Hispanic or Latino","English","Lab","PA","2-8",21.86447639,21.86447639,1,8
"89",1,"Oct-2014",3,13,"radial",0.1,0,"L",1.4223,TRUE,0.1,1,2,"Male","White","Not Hispanic or Latino","English","Lab","PA","2-8",21.86447639,21.86447639,1,2
"90",1,"Oct-2014",3,13,"linear",0,0.15,"L",1.3847,FALSE,0.15,2,8,"Male","White","Not Hispanic or Latino","English","Lab","PA","2-8",21.86447639,21.86447639,1,8
"91",1,"Oct-2014",3,14,"linear",0,0.1,"R",2.0564,TRUE,0.1,1,2,"Male","White","Not Hispanic or Latino","English","Lab","PA","2-8",21.86447639,21.86447639,1,2
"92",1,"Oct-2014",3,14,"linear",0,0.2,"R",1.3513,TRUE,0.2,2,8,"Male","White","Not Hispanic or Latino","English","Lab","PA","2-8",21.86447639,21.86447639,1,8
"93",1,"Oct-2014",3,15,"linear",0,0.05,"R",1.5181,TRUE,0.05,1,2,"Male","White","Not Hispanic or Latino","English","Lab","PA","2-8",21.86447639,21.86447639,1,2
"94",1,"Oct-2014",3,15,"linear",0.1,0,"L",2.2855,TRUE,0.1,2,8,"Male","White","Not Hispanic or Latino","English","Lab","PA","2-8",21.86447639,21.86447639,1,8
"95",1,"Oct-2014",3,16,"linear",0.15,0,"L",1.3011,TRUE,0.15,1,2,"Male","White","Not Hispanic or Latino","English","Lab","PA","2-8",21.86447639,21.86447639,1,2
"96",1,"Oct-2014",3,16,"linear",0,0.05,"L",1.8349,FALSE,0.05,2,8,"Male","White","Not Hispanic or Latino","English","Lab","PA","2-8",21.86447639,21.86447639,1,8
"97",1,"Oct-2014",4,1,"linear",0.1,0,"L",1.2348,TRUE,0.1,1,2,"Male","White","Not Hispanic or Latino","English","Lab","PA","2-8",21.86447639,21.86447639,1,2
"98",1,"Oct-2014",4,1,"radial",0.15,0,"L",1.241,TRUE,0.15,2,8,"Male","White","Not Hispanic or Latino","English","Lab","PA","2-8",21.86447639,21.86447639,1,8
"99",1,"Oct-2014",4,2,"radial",0.2,0,"L",1.0177,TRUE,0.2,1,2,"Male","White","Not Hispanic or Latino","English","Lab","PA","2-8",21.86447639,21.86447639,1,2
"100",1,"Oct-2014",4,2,"linear",0.2,0,"L",0.96766,TRUE,0.2,2,8,"Male","White","Not Hispanic or Latino","English","Lab","PA","2-8",21.86447639,21.86447639,1,8
"101",1,"Oct-2014",4,3,"radial",0,0.05,"R",2.2352,TRUE,0.05,1,2,"Male","White","Not Hispanic or Latino","English","Lab","PA","2-8",21.86447639,21.86447639,1,2
"102",1,"Oct-2014",4,3,"radial",0.1,0,"L",1.8521,TRUE,0.1,2,8,"Male","White","Not Hispanic or Latino","English","Lab","PA","2-8",21.86447639,21.86447639,1,8
"103",1,"Oct-2014",4,4,"linear",0.2,0,"L",0.86751,TRUE,0.2,1,2,"Male","White","Not Hispanic or Latino","English","Lab","PA","2-8",21.86447639,21.86447639,1,2
"104",1,"Oct-2014",4,4,"radial",0,0.15,"R",2.4067,TRUE,0.15,2,8,"Male","White","Not Hispanic or Latino","English","Lab","PA","2-8",21.86447639,21.86447639,1,8
"105",1,"Oct-2014",4,5,"linear",0.05,0,"L",1.0846,TRUE,0.05,1,2,"Male","White","Not Hispanic or Latino","English","Lab","PA","2-8",21.86447639,21.86447639,1,2
"106",1,"Oct-2014",4,5,"linear",0,0.1,"R",3.4863,TRUE,0.1,2,8,"Male","White","Not Hispanic or Latino","English","Lab","PA","2-8",21.86447639,21.86447639,1,8
"107",1,"Oct-2014",4,6,"radial",0,0.2,"L",1.4241,FALSE,0.2,1,2,"Male","White","Not Hispanic or Latino","English","Lab","PA","2-8",21.86447639,21.86447639,1,2
"108",1,"Oct-2014",4,6,"radial",0,0.2,"R",0.86781,TRUE,0.2,2,8,"Male","White","Not Hispanic or Latino","English","Lab","PA","2-8",21.86447639,21.86447639,1,8
"109",1,"Oct-2014",4,7,"radial",0,0.15,"R",1.4854,TRUE,0.15,1,2,"Male","White","Not Hispanic or Latino","English","Lab","PA","2-8",21.86447639,21.86447639,1,2
"110",1,"Oct-2014",4,7,"radial",0.05,0,"L",1.2345,TRUE,0.05,2,8,"Male","White","Not Hispanic or Latino","English","Lab","PA","2-8",21.86447639,21.86447639,1,8
"111",1,"Oct-2014",4,8,"linear",0,0.2,"R",1.1346,TRUE,0.2,1,2,"Male","White","Not Hispanic or Latino","English","Lab","PA","2-8",21.86447639,21.86447639,1,2
"112",1,"Oct-2014",4,8,"linear",0.15,0,"L",0.9343,TRUE,0.15,2,8,"Male","White","Not Hispanic or Latino","English","Lab","PA","2-8",21.86447639,21.86447639,1,8
"113",1,"Oct-2014",4,9,"linear",0,0.15,"L",1.3343,FALSE,0.15,1,2,"Male","White","Not Hispanic or Latino","English","Lab","PA","2-8",21.86447639,21.86447639,1,2
"114",1,"Oct-2014",4,9,"radial",0,0.1,"L",1.1847,FALSE,0.1,2,8,"Male","White","Not Hispanic or Latino","English","Lab","PA","2-8",21.86447639,21.86447639,1,8
"115",1,"Oct-2014",4,10,"linear",0,0.1,"R",2.1351,TRUE,0.1,1,2,"Male","White","Not Hispanic or Latino","English","Lab","PA","2-8",21.86447639,21.86447639,1,2
"116",1,"Oct-2014",4,10,"radial",0,0.05,"L",2.7534,FALSE,0.05,2,8,"Male","White","Not Hispanic or Latino","English","Lab","PA","2-8",21.86447639,21.86447639,1,8
"117",1,"Oct-2014",4,11,"radial",0.05,0,"L",1.8351,TRUE,0.05,1,2,"Male","White","Not Hispanic or Latino","English","Lab","PA","2-8",21.86447639,21.86447639,1,2
"118",1,"Oct-2014",4,11,"radial",0.2,0,"L",1.0719,TRUE,0.2,2,8,"Male","White","Not Hispanic or Latino","English","Lab","PA","2-8",21.86447639,21.86447639,1,8
"119",1,"Oct-2014",4,12,"linear",0,0.05,"R",1.9683,TRUE,0.05,1,2,"Male","White","Not Hispanic or Latino","English","Lab","PA","2-8",21.86447639,21.86447639,1,2
"120",1,"Oct-2014",4,12,"linear",0.05,0,"L",1.1105,TRUE,0.05,2,8,"Male","White","Not Hispanic or Latino","English","Lab","PA","2-8",21.86447639,21.86447639,1,8
"121",1,"Oct-2014",4,13,"radial",0.15,0,"L",1.9038,TRUE,0.15,1,2,"Male","White","Not Hispanic or Latino","English","Lab","PA","2-8",21.86447639,21.86447639,1,2
"122",1,"Oct-2014",4,13,"linear",0,0.15,"L",1.368,FALSE,0.15,2,8,"Male","White","Not Hispanic or Latino","English","Lab","PA","2-8",21.86447639,21.86447639,1,8
"123",1,"Oct-2014",4,14,"linear",0.15,0,"L",2.155,TRUE,0.15,1,2,"Male","White","Not Hispanic or Latino","English","Lab","PA","2-8",21.86447639,21.86447639,1,2
"124",1,"Oct-2014",4,14,"linear",0,0.2,"R",1.2012,TRUE,0.2,2,8,"Male","White","Not Hispanic or Latino","English","Lab","PA","2-8",21.86447639,21.86447639,1,8
"125",1,"Oct-2014",4,15,"radial",0,0.1,"R",1.7182,TRUE,0.1,1,2,"Male","White","Not Hispanic or Latino","English","Lab","PA","2-8",21.86447639,21.86447639,1,2
"126",1,"Oct-2014",4,15,"linear",0.1,0,"L",1.2253,TRUE,0.1,2,8,"Male","White","Not Hispanic or Latino","English","Lab","PA","2-8",21.86447639,21.86447639,1,8
"127",1,"Oct-2014",4,16,"radial",0.1,0,"R",2.7358,FALSE,0.1,1,2,"Male","White","Not Hispanic or Latino","English","Lab","PA","2-8",21.86447639,21.86447639,1,2
"128",1,"Oct-2014",4,16,"linear",0,0.05,"R",1.529,TRUE,0.05,2,8,"Male","White","Not Hispanic or Latino","English","Lab","PA","2-8",21.86447639,21.86447639,1,8
"129",1,"Oct-2014",5,1,"radial",0.2,0,"L",0.95111,TRUE,0.2,1,2,"Male","White","Not Hispanic or Latino","English","Lab","PA","2-8",21.86447639,21.86447639,1,2
"130",1,"Oct-2014",5,1,"linear",0.2,0,"L",0.83767,TRUE,0.2,2,8,"Male","White","Not Hispanic or Latino","English","Lab","PA","2-8",21.86447639,21.86447639,1,8
"131",1,"Oct-2014",5,2,"linear",0.1,0,"L",2.052,TRUE,0.1,1,2,"Male","White","Not Hispanic or Latino","English","Lab","PA","2-8",21.86447639,21.86447639,1,2
"132",1,"Oct-2014",5,2,"radial",0.15,0,"L",1.0844,TRUE,0.15,2,8,"Male","White","Not Hispanic or Latino","English","Lab","PA","2-8",21.86447639,21.86447639,1,8
"133",1,"Oct-2014",5,3,"linear",0.2,0,"L",1.2381,TRUE,0.2,1,2,"Male","White","Not Hispanic or Latino","English","Lab","PA","2-8",21.86447639,21.86447639,1,2
"134",1,"Oct-2014",5,3,"linear",0,0.1,"R",1.9183,TRUE,0.1,2,8,"Male","White","Not Hispanic or Latino","English","Lab","PA","2-8",21.86447639,21.86447639,1,8
"135",1,"Oct-2014",5,4,"radial",0,0.05,"L",1.5014,FALSE,0.05,1,2,"Male","White","Not Hispanic or Latino","English","Lab","PA","2-8",21.86447639,21.86447639,1,2
"136",1,"Oct-2014",5,4,"radial",0.1,0,"L",0.95109,TRUE,0.1,2,8,"Male","White","Not Hispanic or Latino","English","Lab","PA","2-8",21.86447639,21.86447639,1,8
"137",1,"Oct-2014",5,5,"radial",0,0.2,"R",1.785,TRUE,0.2,1,2,"Male","White","Not Hispanic or Latino","English","Lab","PA","2-8",21.86447639,21.86447639,1,2
"138",1,"Oct-2014",5,5,"linear",0.15,0,"L",0.98398,TRUE,0.15,2,8,"Male","White","Not Hispanic or Latino","English","Lab","PA","2-8",21.86447639,21.86447639,1,8
"139",1,"Oct-2014",5,6,"linear",0.05,0,"L",2.9196,TRUE,0.05,1,2,"Male","White","Not Hispanic or Latino","English","Lab","PA","2-8",21.86447639,21.86447639,1,2
"140",1,"Oct-2014",5,6,"radial",0,0.15,"L",1.9183,FALSE,0.15,2,8,"Male","White","Not Hispanic or Latino","English","Lab","PA","2-8",21.86447639,21.86447639,1,8
"141",1,"Oct-2014",5,7,"linear",0,0.2,"R",0.95095,TRUE,0.2,1,2,"Male","White","Not Hispanic or Latino","English","Lab","PA","2-8",21.86447639,21.86447639,1,2
"142",1,"Oct-2014",5,7,"radial",0,0.2,"R",1.0847,TRUE,0.2,2,8,"Male","White","Not Hispanic or Latino","English","Lab","PA","2-8",21.86447639,21.86447639,1,8
"143",1,"Oct-2014",5,8,"radial",0,0.15,"R",0.90103,TRUE,0.15,1,2,"Male","White","Not Hispanic or Latino","English","Lab","PA","2-8",21.86447639,21.86447639,1,2
"144",1,"Oct-2014",5,8,"radial",0.05,0,"R",1.3514,FALSE,0.05,2,8,"Male","White","Not Hispanic or Latino","English","Lab","PA","2-8",21.86447639,21.86447639,1,8
"145",1,"Oct-2014",5,9,"radial",0.05,0,"R",2.1556,FALSE,0.05,1,2,"Male","White","Not Hispanic or Latino","English","Lab","PA","2-8",21.86447639,21.86447639,1,2
"146",1,"Oct-2014",5,9,"linear",0.05,0,"L",0.834,TRUE,0.05,2,8,"Male","White","Not Hispanic or Latino","English","Lab","PA","2-8",21.86447639,21.86447639,1,8
"147",1,"Oct-2014",5,10,"radial",0.15,0,"L",1.0681,TRUE,0.15,1,2,"Male","White","Not Hispanic or Latino","English","Lab","PA","2-8",21.86447639,21.86447639,1,2
"148",1,"Oct-2014",5,10,"linear",0,0.15,"R",1.8683,TRUE,0.15,2,8,"Male","White","Not Hispanic or Latino","English","Lab","PA","2-8",21.86447639,21.86447639,1,8
"149",1,"Oct-2014",5,11,"radial",0,0.1,"R",1.4945,TRUE,0.1,1,2,"Male","White","Not Hispanic or Latino","English","Lab","PA","2-8",21.86447639,21.86447639,1,2
"150",1,"Oct-2014",5,11,"linear",0,0.2,"R",1.0009,TRUE,0.2,2,8,"Male","White","Not Hispanic or Latino","English","Lab","PA","2-8",21.86447639,21.86447639,1,8
"151",1,"Oct-2014",5,12,"radial",0.1,0,"R",2.1351,FALSE,0.1,1,2,"Male","White","Not Hispanic or Latino","English","Lab","PA","2-8",21.86447639,21.86447639,1,2
"152",1,"Oct-2014",5,12,"radial",0,0.1,"R",1.4177,TRUE,0.1,2,8,"Male","White","Not Hispanic or Latino","English","Lab","PA","2-8",21.86447639,21.86447639,1,8
"153",1,"Oct-2014",5,13,"linear",0,0.15,"R",1.4231,TRUE,0.15,1,2,"Male","White","Not Hispanic or Latino","English","Lab","PA","2-8",21.86447639,21.86447639,1,2
"154",1,"Oct-2014",5,13,"radial",0,0.05,"L",2.7525,FALSE,0.05,2,8,"Male","White","Not Hispanic or Latino","English","Lab","PA","2-8",21.86447639,21.86447639,1,8
"155",1,"Oct-2014",5,14,"linear",0,0.1,"R",1.1176,TRUE,0.1,1,2,"Male","White","Not Hispanic or Latino","English","Lab","PA","2-8",21.86447639,21.86447639,1,2
"156",1,"Oct-2014",5,14,"linear",0.1,0,"R",2.0019,FALSE,0.1,2,8,"Male","White","Not Hispanic or Latino","English","Lab","PA","2-8",21.86447639,21.86447639,1,8
"157",1,"Oct-2014",5,15,"linear",0,0.05,"R",3.737,TRUE,0.05,1,2,"Male","White","Not Hispanic or Latino","English","Lab","PA","2-8",21.86447639,21.86447639,1,2
"158",1,"Oct-2014",5,15,"radial",0.2,0,"L",1.468,TRUE,0.2,2,8,"Male","White","Not Hispanic or Latino","English","Lab","PA","2-8",21.86447639,21.86447639,1,8
"159",1,"Oct-2014",5,16,"linear",0.15,0,"L",1.718,TRUE,0.15,1,2,"Male","White","Not Hispanic or Latino","English","Lab","PA","2-8",21.86447639,21.86447639,1,2
"160",1,"Oct-2014",5,16,"linear",0,0.05,"R",3.2529,TRUE,0.05,2,8,"Male","White","Not Hispanic or Latino","English","Lab","PA","2-8",21.86447639,21.86447639,1,8
"161",1,"Oct-2014",1,1,"linear",0.1,0,"R",2.6154,FALSE,0.1,1,2,"Male","White","Not Hispanic or Latino","English","Lab","PA","2-8-2-8",21.90554415,21.90554415,1,2
"162",1,"Oct-2014",1,1,"linear",0.1,0,"L",1.1177,TRUE,0.1,3,2,"Male","White","Not Hispanic or Latino","English","Lab","PA","2-8-2-8",21.90554415,21.90554415,1,2
"163",1,"Oct-2014",1,1,"radial",0.15,0,"L",1.8853,TRUE,0.15,2,8,"Male","White","Not Hispanic or Latino","English","Lab","PA","2-8-2-8",21.90554415,21.90554415,1,8
"164",1,"Oct-2014",1,1,"radial",0.15,0,"L",1.2344,TRUE,0.15,4,8,"Male","White","Not Hispanic or Latino","English","Lab","PA","2-8-2-8",21.90554415,21.90554415,1,8
"165",1,"Oct-2014",1,2,"linear",0.2,0,"L",1.7685,TRUE,0.2,1,2,"Male","White","Not Hispanic or Latino","English","Lab","PA","2-8-2-8",21.90554415,21.90554415,1,2
"166",1,"Oct-2014",1,2,"linear",0.2,0,"L",0.88429,TRUE,0.2,3,2,"Male","White","Not Hispanic or Latino","English","Lab","PA","2-8-2-8",21.90554415,21.90554415,1,2
"167",1,"Oct-2014",1,2,"radial",0.1,0,"R",3.1692,FALSE,0.1,2,8,"Male","White","Not Hispanic or Latino","English","Lab","PA","2-8-2-8",21.90554415,21.90554415,1,8
"168",1,"Oct-2014",1,2,"radial",0.1,0,"L",1.6085,TRUE,0.1,4,8,"Male","White","Not Hispanic or Latino","English","Lab","PA","2-8-2-8",21.90554415,21.90554415,1,8
"169",1,"Oct-2014",1,3,"radial",0.2,0,"L",0.98448,TRUE,0.2,1,2,"Male","White","Not Hispanic or Latino","English","Lab","PA","2-8-2-8",21.90554415,21.90554415,1,2
"170",1,"Oct-2014",1,3,"radial",0.2,0,"L",1.0009,TRUE,0.2,3,2,"Male","White","Not Hispanic or Latino","English","Lab","PA","2-8-2-8",21.90554415,21.90554415,1,2
"171",1,"Oct-2014",1,3,"radial",0,0.15,"R",1.1596,TRUE,0.15,2,8,"Male","White","Not Hispanic or Latino","English","Lab","PA","2-8-2-8",21.90554415,21.90554415,1,8
"172",1,"Oct-2014",1,3,"radial",0,0.15,"R",0.86817,TRUE,0.15,4,8,"Male","White","Not Hispanic or Latino","English","Lab","PA","2-8-2-8",21.90554415,21.90554415,1,8
"173",1,"Oct-2014",1,4,"linear",0.05,0,"L",3.286,TRUE,0.05,1,2,"Male","White","Not Hispanic or Latino","English","Lab","PA","2-8-2-8",21.90554415,21.90554415,1,2
"174",1,"Oct-2014",1,4,"linear",0.05,0,"R",1.2698,FALSE,0.05,3,2,"Male","White","Not Hispanic or Latino","English","Lab","PA","2-8-2-8",21.90554415,21.90554415,1,2
"175",1,"Oct-2014",1,4,"radial",0,0.2,"R",1.3678,TRUE,0.2,2,8,"Male","White","Not Hispanic or Latino","English","Lab","PA","2-8-2-8",21.90554415,21.90554415,1,8
"176",1,"Oct-2014",1,4,"radial",0,0.2,"R",1.101,TRUE,0.2,4,8,"Male","White","Not Hispanic or Latino","English","Lab","PA","2-8-2-8",21.90554415,21.90554415,1,8
"177",1,"Oct-2014",1,5,"linear",0,0.2,"L",1.8017,FALSE,0.2,1,2,"Male","White","Not Hispanic or Latino","English","Lab","PA","2-8-2-8",21.90554415,21.90554415,1,2
"178",1,"Oct-2014",1,5,"linear",0,0.2,"L",0.81755,FALSE,0.2,3,2,"Male","White","Not Hispanic or Latino","English","Lab","PA","2-8-2-8",21.90554415,21.90554415,1,2
"179",1,"Oct-2014",1,5,"radial",0.05,0,"L",1.9517,TRUE,0.05,2,8,"Male","White","Not Hispanic or Latino","English","Lab","PA","2-8-2-8",21.90554415,21.90554415,1,8
"180",1,"Oct-2014",1,5,"radial",0.05,0,"R",2.8022,FALSE,0.05,4,8,"Male","White","Not Hispanic or Latino","English","Lab","PA","2-8-2-8",21.90554415,21.90554415,1,8
"181",1,"Oct-2014",1,6,"radial",0,0.05,"R",3.6066,TRUE,0.05,1,2,"Male","White","Not Hispanic or Latino","English","Lab","PA","2-8-2-8",21.90554415,21.90554415,1,2
"182",1,"Oct-2014",1,6,"radial",0,0.05,"R",2.5084,TRUE,0.05,3,2,"Male","White","Not Hispanic or Latino","English","Lab","PA","2-8-2-8",21.90554415,21.90554415,1,2
"183",1,"Oct-2014",1,6,"linear",0.2,0,"L",1.0009,TRUE,0.2,2,8,"Male","White","Not Hispanic or Latino","English","Lab","PA","2-8-2-8",21.90554415,21.90554415,1,8
"184",1,"Oct-2014",1,6,"linear",0.2,0,"L",0.90075,TRUE,0.2,4,8,"Male","White","Not Hispanic or Latino","English","Lab","PA","2-8-2-8",21.90554415,21.90554415,1,8
"185",1,"Oct-2014",1,7,"radial",0,0.2,"R",0.85086,TRUE,0.2,1,2,"Male","White","Not Hispanic or Latino","English","Lab","PA","2-8-2-8",21.90554415,21.90554415,1,2
"186",1,"Oct-2014",1,7,"radial",0,0.2,"R",1.1067,TRUE,0.2,3,2,"Male","White","Not Hispanic or Latino","English","Lab","PA","2-8-2-8",21.90554415,21.90554415,1,2
"187",1,"Oct-2014",1,7,"linear",0,0.1,"L",1.401,FALSE,0.1,2,8,"Male","White","Not Hispanic or Latino","English","Lab","PA","2-8-2-8",21.90554415,21.90554415,1,8
"188",1,"Oct-2014",1,7,"linear",0,0.1,"R",1.2679,TRUE,0.1,4,8,"Male","White","Not Hispanic or Latino","English","Lab","PA","2-8-2-8",21.90554415,21.90554415,1,8
"189",1,"Oct-2014",1,8,"linear",0,0.15,"R",0.96781,TRUE,0.15,1,2,"Male","White","Not Hispanic or Latino","English","Lab","PA","2-8-2-8",21.90554415,21.90554415,1,2
"190",1,"Oct-2014",1,8,"linear",0,0.15,"R",0.90144,TRUE,0.15,3,2,"Male","White","Not Hispanic or Latino","English","Lab","PA","2-8-2-8",21.90554415,21.90554415,1,2
"191",1,"Oct-2014",1,8,"linear",0.15,0,"L",1.4181,TRUE,0.15,2,8,"Male","White","Not Hispanic or Latino","English","Lab","PA","2-8-2-8",21.90554415,21.90554415,1,8
"192",1,"Oct-2014",1,8,"linear",0.15,0,"L",1.3845,TRUE,0.15,4,8,"Male","White","Not Hispanic or Latino","English","Lab","PA","2-8-2-8",21.90554415,21.90554415,1,8
"193",1,"Oct-2014",1,9,"radial",0,0.15,"R",1.9354,TRUE,0.15,1,2,"Male","White","Not Hispanic or Latino","English","Lab","PA","2-8-2-8",21.90554415,21.90554415,1,2
"194",1,"Oct-2014",1,9,"radial",0,0.15,"R",1.4724,TRUE,0.15,3,2,"Male","White","Not Hispanic or Latino","English","Lab","PA","2-8-2-8",21.90554415,21.90554415,1,2
"195",1,"Oct-2014",1,9,"radial",0,0.1,"R",2.36,TRUE,0.1,2,8,"Male","White","Not Hispanic or Latino","English","Lab","PA","2-8-2-8",21.90554415,21.90554415,1,8
"196",1,"Oct-2014",1,9,"radial",0,0.1,"R",1.301,TRUE,0.1,4,8,"Male","White","Not Hispanic or Latino","English","Lab","PA","2-8-2-8",21.90554415,21.90554415,1,8
"197",1,"Oct-2014",1,10,"linear",0,0.1,"R",1.8356,TRUE,0.1,1,2,"Male","White","Not Hispanic or Latino","English","Lab","PA","2-8-2-8",21.90554415,21.90554415,1,2
"198",1,"Oct-2014",1,10,"linear",0,0.1,"L",1.6684,FALSE,0.1,3,2,"Male","White","Not Hispanic or Latino","English","Lab","PA","2-8-2-8",21.90554415,21.90554415,1,2
"199",1,"Oct-2014",1,10,"linear",0.05,0,"L",3.4696,TRUE,0.05,2,8,"Male","White","Not Hispanic or Latino","English","Lab","PA","2-8-2-8",21.90554415,21.90554415,1,8
"200",1,"Oct-2014",1,10,"linear",0.05,0,"L",1.4179,TRUE,0.05,4,8,"Male","White","Not Hispanic or Latino","English","Lab","PA","2-8-2-8",21.90554415,21.90554415,1,8
"201",1,"Oct-2014",1,11,"radial",0.05,0,"L",3.3196,TRUE,0.05,1,2,"Male","White","Not Hispanic or Latino","English","Lab","PA","2-8-2-8",21.90554415,21.90554415,1,2
"202",1,"Oct-2014",1,11,"radial",0.05,0,"R",2.0541,FALSE,0.05,3,2,"Male","White","Not Hispanic or Latino","English","Lab","PA","2-8-2-8",21.90554415,21.90554415,1,2
"203",1,"Oct-2014",1,11,"radial",0,0.05,"L",1.8183,FALSE,0.05,2,8,"Male","White","Not Hispanic or Latino","English","Lab","PA","2-8-2-8",21.90554415,21.90554415,1,8
"204",1,"Oct-2014",1,11,"radial",0,0.05,"R",1.0509,TRUE,0.05,4,8,"Male","White","Not Hispanic or Latino","English","Lab","PA","2-8-2-8",21.90554415,21.90554415,1,8
"205",1,"Oct-2014",1,12,"linear",0,0.05,"L",1.8183,FALSE,0.05,1,2,"Male","White","Not Hispanic or Latino","English","Lab","PA","2-8-2-8",21.90554415,21.90554415,1,2
"206",1,"Oct-2014",1,12,"linear",0,0.05,"R",1.7856,TRUE,0.05,3,2,"Male","White","Not Hispanic or Latino","English","Lab","PA","2-8-2-8",21.90554415,21.90554415,1,2
"207",1,"Oct-2014",1,12,"radial",0.2,0,"L",1.0844,TRUE,0.2,2,8,"Male","White","Not Hispanic or Latino","English","Lab","PA","2-8-2-8",21.90554415,21.90554415,1,8
"208",1,"Oct-2014",1,12,"radial",0.2,0,"L",1.0512,TRUE,0.2,4,8,"Male","White","Not Hispanic or Latino","English","Lab","PA","2-8-2-8",21.90554415,21.90554415,1,8
"209",1,"Oct-2014",1,13,"radial",0.15,0,"L",1.6016,TRUE,0.15,1,2,"Male","White","Not Hispanic or Latino","English","Lab","PA","2-8-2-8",21.90554415,21.90554415,1,2
"210",1,"Oct-2014",1,13,"radial",0.15,0,"R",1.9683,FALSE,0.15,3,2,"Male","White","Not Hispanic or Latino","English","Lab","PA","2-8-2-8",21.90554415,21.90554415,1,2
"211",1,"Oct-2014",1,13,"linear",0,0.15,"L",1.8519,FALSE,0.15,2,8,"Male","White","Not Hispanic or Latino","English","Lab","PA","2-8-2-8",21.90554415,21.90554415,1,8
"212",1,"Oct-2014",1,13,"linear",0,0.15,"R",2.1683,TRUE,0.15,4,8,"Male","White","Not Hispanic or Latino","English","Lab","PA","2-8-2-8",21.90554415,21.90554415,1,8
"213",1,"Oct-2014",1,14,"linear",0.15,0,"L",2.2872,TRUE,0.15,1,2,"Male","White","Not Hispanic or Latino","English","Lab","PA","2-8-2-8",21.90554415,21.90554415,1,2
"214",1,"Oct-2014",1,14,"linear",0.15,0,"L",0.71756,TRUE,0.15,3,2,"Male","White","Not Hispanic or Latino","English","Lab","PA","2-8-2-8",21.90554415,21.90554415,1,2
"215",1,"Oct-2014",1,14,"linear",0,0.2,"R",1.9517,TRUE,0.2,2,8,"Male","White","Not Hispanic or Latino","English","Lab","PA","2-8-2-8",21.90554415,21.90554415,1,8
"216",1,"Oct-2014",1,14,"linear",0,0.2,"R",1.9518,TRUE,0.2,4,8,"Male","White","Not Hispanic or Latino","English","Lab","PA","2-8-2-8",21.90554415,21.90554415,1,8
"217",1,"Oct-2014",1,15,"radial",0,0.1,"L",1.4352,FALSE,0.1,1,2,"Male","White","Not Hispanic or Latino","English","Lab","PA","2-8-2-8",21.90554415,21.90554415,1,2
"218",1,"Oct-2014",1,15,"radial",0,0.1,"R",1.3011,TRUE,0.1,3,2,"Male","White","Not Hispanic or Latino","English","Lab","PA","2-8-2-8",21.90554415,21.90554415,1,2
"219",1,"Oct-2014",1,15,"linear",0.1,0,"R",2.7022,FALSE,0.1,2,8,"Male","White","Not Hispanic or Latino","English","Lab","PA","2-8-2-8",21.90554415,21.90554415,1,8
"220",1,"Oct-2014",1,15,"linear",0.1,0,"R",1.8684,FALSE,0.1,4,8,"Male","White","Not Hispanic or Latino","English","Lab","PA","2-8-2-8",21.90554415,21.90554415,1,8
"221",1,"Oct-2014",1,16,"radial",0.1,0,"L",2.7359,TRUE,0.1,1,2,"Male","White","Not Hispanic or Latino","English","Lab","PA","2-8-2-8",21.90554415,21.90554415,1,2
"222",1,"Oct-2014",1,16,"radial",0.1,0,"L",1.2845,TRUE,0.1,3,2,"Male","White","Not Hispanic or Latino","English","Lab","PA","2-8-2-8",21.90554415,21.90554415,1,2
"223",1,"Oct-2014",1,16,"linear",0,0.05,"L",2.3352,FALSE,0.05,2,8,"Male","White","Not Hispanic or Latino","English","Lab","PA","2-8-2-8",21.90554415,21.90554415,1,8
"224",1,"Oct-2014",1,16,"linear",0,0.05,"R",2.7358,TRUE,0.05,4,8,"Male","White","Not Hispanic or Latino","English","Lab","PA","2-8-2-8",21.90554415,21.90554415,1,8
"225",1,"Oct-2014",2,1,"radial",0.2,0,"L",1.6012,TRUE,0.2,1,2,"Male","White","Not Hispanic or Latino","English","Lab","PA","2-8-2-8",21.90554415,21.90554415,1,2
"226",1,"Oct-2014",2,1,"radial",0.2,0,"L",1.051,TRUE,0.2,3,2,"Male","White","Not Hispanic or Latino","English","Lab","PA","2-8-2-8",21.90554415,21.90554415,1,2
"227",1,"Oct-2014",2,1,"linear",0.2,0,"L",0.98428,TRUE,0.2,2,8,"Male","White","Not Hispanic or Latino","English","Lab","PA","2-8-2-8",21.90554415,21.90554415,1,8
"228",1,"Oct-2014",2,1,"linear",0.2,0,"L",0.96776,TRUE,0.2,4,8,"Male","White","Not Hispanic or Latino","English","Lab","PA","2-8-2-8",21.90554415,21.90554415,1,8
"229",1,"Oct-2014",2,2,"linear",0.1,0,"L",2.0765,TRUE,0.1,1,2,"Male","White","Not Hispanic or Latino","English","Lab","PA","2-8-2-8",21.90554415,21.90554415,1,2
"230",1,"Oct-2014",2,2,"linear",0.1,0,"L",0.96758,TRUE,0.1,3,2,"Male","White","Not Hispanic or Latino","English","Lab","PA","2-8-2-8",21.90554415,21.90554415,1,2
"231",1,"Oct-2014",2,2,"radial",0.15,0,"L",1.9685,TRUE,0.15,2,8,"Male","White","Not Hispanic or Latino","English","Lab","PA","2-8-2-8",21.90554415,21.90554415,1,8
"232",1,"Oct-2014",2,2,"radial",0.15,0,"L",1.0176,TRUE,0.15,4,8,"Male","White","Not Hispanic or Latino","English","Lab","PA","2-8-2-8",21.90554415,21.90554415,1,8
"233",1,"Oct-2014",2,3,"linear",0.2,0,"L",1.4865,TRUE,0.2,1,2,"Male","White","Not Hispanic or Latino","English","Lab","PA","2-8-2-8",21.90554415,21.90554415,1,2
"234",1,"Oct-2014",2,3,"linear",0.2,0,"L",0.75052,TRUE,0.2,3,2,"Male","White","Not Hispanic or Latino","English","Lab","PA","2-8-2-8",21.90554415,21.90554415,1,2
"235",1,"Oct-2014",2,3,"linear",0,0.1,"R",2.8691,TRUE,0.1,2,8,"Male","White","Not Hispanic or Latino","English","Lab","PA","2-8-2-8",21.90554415,21.90554415,1,8
"236",1,"Oct-2014",2,3,"linear",0,0.1,"L",1.3349,FALSE,0.1,4,8,"Male","White","Not Hispanic or Latino","English","Lab","PA","2-8-2-8",21.90554415,21.90554415,1,8
"237",1,"Oct-2014",2,4,"linear",0.05,0,"L",1.7847,TRUE,0.05,1,2,"Male","White","Not Hispanic or Latino","English","Lab","PA","2-8-2-8",21.90554415,21.90554415,1,2
"238",1,"Oct-2014",2,4,"linear",0.05,0,"R",1.9851,FALSE,0.05,3,2,"Male","White","Not Hispanic or Latino","English","Lab","PA","2-8-2-8",21.90554415,21.90554415,1,2
"239",1,"Oct-2014",2,4,"radial",0.1,0,"L",1.7852,TRUE,0.1,2,8,"Male","White","Not Hispanic or Latino","English","Lab","PA","2-8-2-8",21.90554415,21.90554415,1,8
"240",1,"Oct-2014",2,4,"radial",0.1,0,"L",1.4203,TRUE,0.1,4,8,"Male","White","Not Hispanic or Latino","English","Lab","PA","2-8-2-8",21.90554415,21.90554415,1,8
"241",1,"Oct-2014",2,5,"linear",0,0.2,"R",1.1513,TRUE,0.2,1,2,"Male","White","Not Hispanic or Latino","English","Lab","PA","2-8-2-8",21.90554415,21.90554415,1,2
"242",1,"Oct-2014",2,5,"linear",0,0.2,"L",0.98434,FALSE,0.2,3,2,"Male","White","Not Hispanic or Latino","English","Lab","PA","2-8-2-8",21.90554415,21.90554415,1,2
"243",1,"Oct-2014",2,5,"radial",0,0.15,"R",1.5511,TRUE,0.15,2,8,"Male","White","Not Hispanic or Latino","English","Lab","PA","2-8-2-8",21.90554415,21.90554415,1,8
"244",1,"Oct-2014",2,5,"radial",0,0.15,"R",1.055,TRUE,0.15,4,8,"Male","White","Not Hispanic or Latino","English","Lab","PA","2-8-2-8",21.90554415,21.90554415,1,8
"245",1,"Oct-2014",2,6,"radial",0,0.05,"L",2.0548,FALSE,0.05,1,2,"Male","White","Not Hispanic or Latino","English","Lab","PA","2-8-2-8",21.90554415,21.90554415,1,2
"246",1,"Oct-2014",2,6,"radial",0,0.05,"L",1.3678,FALSE,0.05,3,2,"Male","White","Not Hispanic or Latino","English","Lab","PA","2-8-2-8",21.90554415,21.90554415,1,2
"247",1,"Oct-2014",2,6,"linear",0.15,0,"R",2.9524,FALSE,0.15,2,8,"Male","White","Not Hispanic or Latino","English","Lab","PA","2-8-2-8",21.90554415,21.90554415,1,8
"248",1,"Oct-2014",2,6,"linear",0.15,0,"L",1.0514,TRUE,0.15,4,8,"Male","White","Not Hispanic or Latino","English","Lab","PA","2-8-2-8",21.90554415,21.90554415,1,8
"249",1,"Oct-2014",2,7,"radial",0,0.2,"R",1.1178,TRUE,0.2,1,2,"Male","White","Not Hispanic or Latino","English","Lab","PA","2-8-2-8",21.90554415,21.90554415,1,2
"250",1,"Oct-2014",2,7,"radial",0,0.2,"R",0.9176,TRUE,0.2,3,2,"Male","White","Not Hispanic or Latino","English","Lab","PA","2-8-2-8",21.90554415,21.90554415,1,2
"251",1,"Oct-2014",2,7,"radial",0,0.2,"R",1.0009,TRUE,0.2,2,8,"Male","White","Not Hispanic or Latino","English","Lab","PA","2-8-2-8",21.90554415,21.90554415,1,8
"252",1,"Oct-2014",2,7,"radial",0,0.2,"R",0.98444,TRUE,0.2,4,8,"Male","White","Not Hispanic or Latino","English","Lab","PA","2-8-2-8",21.90554415,21.90554415,1,8
"253",1,"Oct-2014",2,8,"linear",0,0.15,"R",1.2384,TRUE,0.15,1,2,"Male","White","Not Hispanic or Latino","English","Lab","PA","2-8-2-8",21.90554415,21.90554415,1,2
"254",1,"Oct-2014",2,8,"linear",0,0.15,"R",1.5897,TRUE,0.15,3,2,"Male","White","Not Hispanic or Latino","English","Lab","PA","2-8-2-8",21.90554415,21.90554415,1,2
"255",1,"Oct-2014",2,8,"radial",0.05,0,"R",1.9518,FALSE,0.05,2,8,"Male","White","Not Hispanic or Latino","English","Lab","PA","2-8-2-8",21.90554415,21.90554415,1,8
"256",1,"Oct-2014",2,8,"radial",0.05,0,"R",3.6706,FALSE,0.05,4,8,"Male","White","Not Hispanic or Latino","English","Lab","PA","2-8-2-8",21.90554415,21.90554415,1,8
"257",1,"Oct-2014",2,9,"linear",0,0.1,"L",1.4512,FALSE,0.1,1,2,"Male","White","Not Hispanic or Latino","English","Lab","PA","2-8-2-8",21.90554415,21.90554415,1,2
"258",1,"Oct-2014",2,9,"linear",0,0.1,"L",0.8025,FALSE,0.1,3,2,"Male","White","Not Hispanic or Latino","English","Lab","PA","2-8-2-8",21.90554415,21.90554415,1,2
"259",1,"Oct-2014",2,9,"radial",0,0.1,"L",3.1239,FALSE,0.1,2,8,"Male","White","Not Hispanic or Latino","English","Lab","PA","2-8-2-8",21.90554415,21.90554415,1,8
"260",1,"Oct-2014",2,9,"radial",0,0.1,"R",2.1683,TRUE,0.1,4,8,"Male","White","Not Hispanic or Latino","English","Lab","PA","2-8-2-8",21.90554415,21.90554415,1,8
"261",1,"Oct-2014",2,10,"radial",0,0.15,"R",1.0679,TRUE,0.15,1,2,"Male","White","Not Hispanic or Latino","English","Lab","PA","2-8-2-8",21.90554415,21.90554415,1,2
"262",1,"Oct-2014",2,10,"radial",0,0.15,"L",2.569,FALSE,0.15,3,2,"Male","White","Not Hispanic or Latino","English","Lab","PA","2-8-2-8",21.90554415,21.90554415,1,2
"263",1,"Oct-2014",2,10,"linear",0.05,0,"L",1.2513,TRUE,0.05,2,8,"Male","White","Not Hispanic or Latino","English","Lab","PA","2-8-2-8",21.90554415,21.90554415,1,8
"264",1,"Oct-2014",2,10,"linear",0.05,0,"L",1.3012,TRUE,0.05,4,8,"Male","White","Not Hispanic or Latino","English","Lab","PA","2-8-2-8",21.90554415,21.90554415,1,8
"265",1,"Oct-2014",2,11,"radial",0.05,0,"R",2.669,FALSE,0.05,1,2,"Male","White","Not Hispanic or Latino","English","Lab","PA","2-8-2-8",21.90554415,21.90554415,1,2
"266",1,"Oct-2014",2,11,"radial",0.05,0,"L",1.537,TRUE,0.05,3,2,"Male","White","Not Hispanic or Latino","English","Lab","PA","2-8-2-8",21.90554415,21.90554415,1,2
"267",1,"Oct-2014",2,11,"radial",0,0.05,"R",3.1886,TRUE,0.05,2,8,"Male","White","Not Hispanic or Latino","English","Lab","PA","2-8-2-8",21.90554415,21.90554415,1,8
"268",1,"Oct-2014",2,11,"radial",0,0.05,"R",2.2184,TRUE,0.05,4,8,"Male","White","Not Hispanic or Latino","English","Lab","PA","2-8-2-8",21.90554415,21.90554415,1,8
"269",1,"Oct-2014",2,12,"radial",0.15,0,"L",1.7683,TRUE,0.15,1,2,"Male","White","Not Hispanic or Latino","English","Lab","PA","2-8-2-8",21.90554415,21.90554415,1,2
"270",1,"Oct-2014",2,12,"radial",0.15,0,"R",1.7183,FALSE,0.15,3,2,"Male","White","Not Hispanic or Latino","English","Lab","PA","2-8-2-8",21.90554415,21.90554415,1,2
"271",1,"Oct-2014",2,12,"linear",0,0.15,"L",1.5347,FALSE,0.15,2,8,"Male","White","Not Hispanic or Latino","English","Lab","PA","2-8-2-8",21.90554415,21.90554415,1,8
"272",1,"Oct-2014",2,12,"linear",0,0.15,"R",1.552,TRUE,0.15,4,8,"Male","White","Not Hispanic or Latino","English","Lab","PA","2-8-2-8",21.90554415,21.90554415,1,8
"273",1,"Oct-2014",2,13,"linear",0,0.05,"R",2.3185,TRUE,0.05,1,2,"Male","White","Not Hispanic or Latino","English","Lab","PA","2-8-2-8",21.90554415,21.90554415,1,2
"274",1,"Oct-2014",2,13,"linear",0,0.05,"R",1.5012,TRUE,0.05,3,2,"Male","White","Not Hispanic or Latino","English","Lab","PA","2-8-2-8",21.90554415,21.90554415,1,2
"275",1,"Oct-2014",2,13,"linear",0,0.2,"R",1.9019,TRUE,0.2,2,8,"Male","White","Not Hispanic or Latino","English","Lab","PA","2-8-2-8",21.90554415,21.90554415,1,8
"276",1,"Oct-2014",2,13,"linear",0,0.2,"R",1.1844,TRUE,0.2,4,8,"Male","White","Not Hispanic or Latino","English","Lab","PA","2-8-2-8",21.90554415,21.90554415,1,8
"277",1,"Oct-2014",2,14,"radial",0,0.1,"R",1.9682,TRUE,0.1,1,2,"Male","White","Not Hispanic or Latino","English","Lab","PA","2-8-2-8",21.90554415,21.90554415,1,2
"278",1,"Oct-2014",2,14,"radial",0,0.1,"R",0.951,TRUE,0.1,3,2,"Male","White","Not Hispanic or Latino","English","Lab","PA","2-8-2-8",21.90554415,21.90554415,1,2
"279",1,"Oct-2014",2,14,"linear",0.1,0,"L",2.1375,TRUE,0.1,2,8,"Male","White","Not Hispanic or Latino","English","Lab","PA","2-8-2-8",21.90554415,21.90554415,1,8
"280",1,"Oct-2014",2,14,"linear",0.1,0,"L",1.051,TRUE,0.1,4,8,"Male","White","Not Hispanic or Latino","English","Lab","PA","2-8-2-8",21.90554415,21.90554415,1,8
"281",1,"Oct-2014",2,15,"radial",0.1,0,"R",1.9018,FALSE,0.1,1,2,"Male","White","Not Hispanic or Latino","English","Lab","PA","2-8-2-8",21.90554415,21.90554415,1,2
"282",1,"Oct-2014",2,15,"radial",0.1,0,"L",3.3028,TRUE,0.1,3,2,"Male","White","Not Hispanic or Latino","English","Lab","PA","2-8-2-8",21.90554415,21.90554415,1,2
"283",1,"Oct-2014",2,15,"radial",0.2,0,"L",0.78431,TRUE,0.2,2,8,"Male","White","Not Hispanic or Latino","English","Lab","PA","2-8-2-8",21.90554415,21.90554415,1,8
"284",1,"Oct-2014",2,15,"radial",0.2,0,"L",0.88425,TRUE,0.2,4,8,"Male","White","Not Hispanic or Latino","English","Lab","PA","2-8-2-8",21.90554415,21.90554415,1,8
"285",1,"Oct-2014",2,16,"linear",0.15,0,"L",0.83439,TRUE,0.15,1,2,"Male","White","Not Hispanic or Latino","English","Lab","PA","2-8-2-8",21.90554415,21.90554415,1,2
"286",1,"Oct-2014",2,16,"linear",0.15,0,"L",2.3018,TRUE,0.15,3,2,"Male","White","Not Hispanic or Latino","English","Lab","PA","2-8-2-8",21.90554415,21.90554415,1,2
"287",1,"Oct-2014",2,16,"linear",0,0.05,"R",2.102,TRUE,0.05,2,8,"Male","White","Not Hispanic or Latino","English","Lab","PA","2-8-2-8",21.90554415,21.90554415,1,8
"288",1,"Oct-2014",2,16,"linear",0,0.05,"R",1.578,TRUE,0.05,4,8,"Male","White","Not Hispanic or Latino","English","Lab","PA","2-8-2-8",21.90554415,21.90554415,1,8
"289",1,"Oct-2014",3,1,"radial",0.2,0,"L",1.8017,TRUE,0.2,1,2,"Male","White","Not Hispanic or Latino","English","Lab","PA","2-8-2-8",21.90554415,21.90554415,1,2
"290",1,"Oct-2014",3,1,"radial",0.2,0,"L",2.29,TRUE,0.2,3,2,"Male","White","Not Hispanic or Latino","English","Lab","PA","2-8-2-8",21.90554415,21.90554415,1,2
"291",1,"Oct-2014",3,1,"radial",0.15,0,"L",1.2676,TRUE,0.15,2,8,"Male","White","Not Hispanic or Latino","English","Lab","PA","2-8-2-8",21.90554415,21.90554415,1,8
"292",1,"Oct-2014",3,1,"radial",0.15,0,"L",1.3183,TRUE,0.15,4,8,"Male","White","Not Hispanic or Latino","English","Lab","PA","2-8-2-8",21.90554415,21.90554415,1,8
"293",1,"Oct-2014",3,2,"radial",0,0.05,"L",2.6356,FALSE,0.05,1,2,"Male","White","Not Hispanic or Latino","English","Lab","PA","2-8-2-8",21.90554415,21.90554415,1,2
"294",1,"Oct-2014",3,2,"radial",0,0.05,"L",2.569,FALSE,0.05,3,2,"Male","White","Not Hispanic or Latino","English","Lab","PA","2-8-2-8",21.90554415,21.90554415,1,2
"295",1,"Oct-2014",3,2,"radial",0.1,0,"L",1.9538,TRUE,0.1,2,8,"Male","White","Not Hispanic or Latino","English","Lab","PA","2-8-2-8",21.90554415,21.90554415,1,8
"296",1,"Oct-2014",3,2,"radial",0.1,0,"R",1.735,FALSE,0.1,4,8,"Male","White","Not Hispanic or Latino","English","Lab","PA","2-8-2-8",21.90554415,21.90554415,1,8
"297",1,"Oct-2014",3,3,"radial",0,0.2,"R",1.2679,TRUE,0.2,1,2,"Male","White","Not Hispanic or Latino","English","Lab","PA","2-8-2-8",21.90554415,21.90554415,1,2
"298",1,"Oct-2014",3,3,"radial",0,0.2,"L",0.9676,FALSE,0.2,3,2,"Male","White","Not Hispanic or Latino","English","Lab","PA","2-8-2-8",21.90554415,21.90554415,1,2
"299",1,"Oct-2014",3,3,"radial",0,0.15,"R",1.3098,TRUE,0.15,2,8,"Male","White","Not Hispanic or Latino","English","Lab","PA","2-8-2-8",21.90554415,21.90554415,1,8
"300",1,"Oct-2014",3,3,"radial",0,0.15,"R",1.1677,TRUE,0.15,4,8,"Male","White","Not Hispanic or Latino","English","Lab","PA","2-8-2-8",21.90554415,21.90554415,1,8
"301",1,"Oct-2014",3,4,"radial",0,0.15,"R",1.8519,TRUE,0.15,1,2,"Male","White","Not Hispanic or Latino","English","Lab","PA","2-8-2-8",21.90554415,21.90554415,1,2
"302",1,"Oct-2014",3,4,"radial",0,0.15,"R",1.3752,TRUE,0.15,3,2,"Male","White","Not Hispanic or Latino","English","Lab","PA","2-8-2-8",21.90554415,21.90554415,1,2
"303",1,"Oct-2014",3,4,"radial",0,0.2,"R",0.9845,TRUE,0.2,2,8,"Male","White","Not Hispanic or Latino","English","Lab","PA","2-8-2-8",21.90554415,21.90554415,1,8
"304",1,"Oct-2014",3,4,"radial",0,0.2,"R",0.98436,TRUE,0.2,4,8,"Male","White","Not Hispanic or Latino","English","Lab","PA","2-8-2-8",21.90554415,21.90554415,1,8
"305",1,"Oct-2014",3,5,"linear",0.1,0,"L",1.2049,TRUE,0.1,1,2,"Male","White","Not Hispanic or Latino","English","Lab","PA","2-8-2-8",21.90554415,21.90554415,1,2
"306",1,"Oct-2014",3,5,"linear",0.1,0,"L",1.5682,TRUE,0.1,3,2,"Male","White","Not Hispanic or Latino","English","Lab","PA","2-8-2-8",21.90554415,21.90554415,1,2
"307",1,"Oct-2014",3,5,"radial",0.05,0,"R",1.5452,FALSE,0.05,2,8,"Male","White","Not Hispanic or Latino","English","Lab","PA","2-8-2-8",21.90554415,21.90554415,1,8
"308",1,"Oct-2014",3,5,"radial",0.05,0,"R",2.3526,FALSE,0.05,4,8,"Male","White","Not Hispanic or Latino","English","Lab","PA","2-8-2-8",21.90554415,21.90554415,1,8
"309",1,"Oct-2014",3,6,"linear",0.2,0,"L",0.85104,TRUE,0.2,1,2,"Male","White","Not Hispanic or Latino","English","Lab","PA","2-8-2-8",21.90554415,21.90554415,1,2
"310",1,"Oct-2014",3,6,"linear",0.2,0,"L",0.96798,TRUE,0.2,3,2,"Male","White","Not Hispanic or Latino","English","Lab","PA","2-8-2-8",21.90554415,21.90554415,1,2
"311",1,"Oct-2014",3,6,"radial",0,0.1,"R",1.9021,TRUE,0.1,2,8,"Male","White","Not Hispanic or Latino","English","Lab","PA","2-8-2-8",21.90554415,21.90554415,1,8
"312",1,"Oct-2014",3,6,"radial",0,0.1,"R",1.8354,TRUE,0.1,4,8,"Male","White","Not Hispanic or Latino","English","Lab","PA","2-8-2-8",21.90554415,21.90554415,1,8
"313",1,"Oct-2014",3,7,"linear",0.05,0,"R",2.1184,FALSE,0.05,1,2,"Male","White","Not Hispanic or Latino","English","Lab","PA","2-8-2-8",21.90554415,21.90554415,1,2
"314",1,"Oct-2014",3,7,"linear",0.05,0,"R",1.9014,FALSE,0.05,3,2,"Male","White","Not Hispanic or Latino","English","Lab","PA","2-8-2-8",21.90554415,21.90554415,1,2
"315",1,"Oct-2014",3,7,"radial",0,0.05,"L",2.969,FALSE,0.05,2,8,"Male","White","Not Hispanic or Latino","English","Lab","PA","2-8-2-8",21.90554415,21.90554415,1,8
"316",1,"Oct-2014",3,7,"radial",0,0.05,"R",1.5179,TRUE,0.05,4,8,"Male","White","Not Hispanic or Latino","English","Lab","PA","2-8-2-8",21.90554415,21.90554415,1,8
"317",1,"Oct-2014",3,8,"linear",0,0.2,"L",1.8351,FALSE,0.2,1,2,"Male","White","Not Hispanic or Latino","English","Lab","PA","2-8-2-8",21.90554415,21.90554415,1,2
"318",1,"Oct-2014",3,8,"linear",0,0.2,"R",1.0513,TRUE,0.2,3,2,"Male","White","Not Hispanic or Latino","English","Lab","PA","2-8-2-8",21.90554415,21.90554415,1,2
"319",1,"Oct-2014",3,8,"linear",0.2,0,"L",1.0511,TRUE,0.2,2,8,"Male","White","Not Hispanic or Latino","English","Lab","PA","2-8-2-8",21.90554415,21.90554415,1,8
"320",1,"Oct-2014",3,8,"linear",0.2,0,"L",0.95094,TRUE,0.2,4,8,"Male","White","Not Hispanic or Latino","English","Lab","PA","2-8-2-8",21.90554415,21.90554415,1,8
"321",1,"Oct-2014",3,9,"linear",0,0.15,"R",1.1846,TRUE,0.15,1,2,"Male","White","Not Hispanic or Latino","English","Lab","PA","2-8-2-8",21.90554415,21.90554415,1,2
"322",1,"Oct-2014",3,9,"linear",0,0.15,"L",2.0353,FALSE,0.15,3,2,"Male","White","Not Hispanic or Latino","English","Lab","PA","2-8-2-8",21.90554415,21.90554415,1,2
"323",1,"Oct-2014",3,9,"linear",0,0.1,"L",1.2847,FALSE,0.1,2,8,"Male","White","Not Hispanic or Latino","English","Lab","PA","2-8-2-8",21.90554415,21.90554415,1,8
"324",1,"Oct-2014",3,9,"linear",0,0.1,"R",2.2019,TRUE,0.1,4,8,"Male","White","Not Hispanic or Latino","English","Lab","PA","2-8-2-8",21.90554415,21.90554415,1,8
"325",1,"Oct-2014",3,10,"radial",0.05,0,"R",1.785,FALSE,0.05,1,2,"Male","White","Not Hispanic or Latino","English","Lab","PA","2-8-2-8",21.90554415,21.90554415,1,2
"326",1,"Oct-2014",3,10,"radial",0.05,0,"R",1.2844,FALSE,0.05,3,2,"Male","White","Not Hispanic or Latino","English","Lab","PA","2-8-2-8",21.90554415,21.90554415,1,2
"327",1,"Oct-2014",3,10,"radial",0.2,0,"L",0.90095,TRUE,0.2,2,8,"Male","White","Not Hispanic or Latino","English","Lab","PA","2-8-2-8",21.90554415,21.90554415,1,8
"328",1,"Oct-2014",3,10,"radial",0.2,0,"L",0.83417,TRUE,0.2,4,8,"Male","White","Not Hispanic or Latino","English","Lab","PA","2-8-2-8",21.90554415,21.90554415,1,8
"329",1,"Oct-2014",3,11,"radial",0.15,0,"L",0.93435,TRUE,0.15,1,2,"Male","White","Not Hispanic or Latino","English","Lab","PA","2-8-2-8",21.90554415,21.90554415,1,2
"330",1,"Oct-2014",3,11,"radial",0.15,0,"L",1.0178,TRUE,0.15,3,2,"Male","White","Not Hispanic or Latino","English","Lab","PA","2-8-2-8",21.90554415,21.90554415,1,2
"331",1,"Oct-2014",3,11,"linear",0.15,0,"L",0.95106,TRUE,0.15,2,8,"Male","White","Not Hispanic or Latino","English","Lab","PA","2-8-2-8",21.90554415,21.90554415,1,8
"332",1,"Oct-2014",3,11,"linear",0.15,0,"L",1.0342,TRUE,0.15,4,8,"Male","White","Not Hispanic or Latino","English","Lab","PA","2-8-2-8",21.90554415,21.90554415,1,8
"333",1,"Oct-2014",3,12,"radial",0,0.1,"R",2.3186,TRUE,0.1,1,2,"Male","White","Not Hispanic or Latino","English","Lab","PA","2-8-2-8",21.90554415,21.90554415,1,2
"334",1,"Oct-2014",3,12,"radial",0,0.1,"L",1.9017,FALSE,0.1,3,2,"Male","White","Not Hispanic or Latino","English","Lab","PA","2-8-2-8",21.90554415,21.90554415,1,2
"335",1,"Oct-2014",3,12,"linear",0.05,0,"R",2.1355,FALSE,0.05,2,8,"Male","White","Not Hispanic or Latino","English","Lab","PA","2-8-2-8",21.90554415,21.90554415,1,8
"336",1,"Oct-2014",3,12,"linear",0.05,0,"R",1.0843,FALSE,0.05,4,8,"Male","White","Not Hispanic or Latino","English","Lab","PA","2-8-2-8",21.90554415,21.90554415,1,8
"337",1,"Oct-2014",3,13,"radial",0.1,0,"R",2.6191,FALSE,0.1,1,2,"Male","White","Not Hispanic or Latino","English","Lab","PA","2-8-2-8",21.90554415,21.90554415,1,2
"338",1,"Oct-2014",3,13,"radial",0.1,0,"R",2.7525,FALSE,0.1,3,2,"Male","White","Not Hispanic or Latino","English","Lab","PA","2-8-2-8",21.90554415,21.90554415,1,2
"339",1,"Oct-2014",3,13,"linear",0,0.15,"L",1.001,FALSE,0.15,2,8,"Male","White","Not Hispanic or Latino","English","Lab","PA","2-8-2-8",21.90554415,21.90554415,1,8
"340",1,"Oct-2014",3,13,"linear",0,0.15,"L",0.93417,FALSE,0.15,4,8,"Male","White","Not Hispanic or Latino","English","Lab","PA","2-8-2-8",21.90554415,21.90554415,1,8
"341",1,"Oct-2014",3,14,"linear",0,0.1,"L",1.8852,FALSE,0.1,1,2,"Male","White","Not Hispanic or Latino","English","Lab","PA","2-8-2-8",21.90554415,21.90554415,1,2
"342",1,"Oct-2014",3,14,"linear",0,0.1,"R",1.4346,TRUE,0.1,3,2,"Male","White","Not Hispanic or Latino","English","Lab","PA","2-8-2-8",21.90554415,21.90554415,1,2
"343",1,"Oct-2014",3,14,"linear",0,0.2,"R",1.351,TRUE,0.2,2,8,"Male","White","Not Hispanic or Latino","English","Lab","PA","2-8-2-8",21.90554415,21.90554415,1,8
"344",1,"Oct-2014",3,14,"linear",0,0.2,"R",1.001,TRUE,0.2,4,8,"Male","White","Not Hispanic or Latino","English","Lab","PA","2-8-2-8",21.90554415,21.90554415,1,8
"345",1,"Oct-2014",3,15,"linear",0,0.05,"L",1.1513,FALSE,0.05,1,2,"Male","White","Not Hispanic or Latino","English","Lab","PA","2-8-2-8",21.90554415,21.90554415,1,2
"346",1,"Oct-2014",3,15,"linear",0,0.05,"R",1.8515,TRUE,0.05,3,2,"Male","White","Not Hispanic or Latino","English","Lab","PA","2-8-2-8",21.90554415,21.90554415,1,2
"347",1,"Oct-2014",3,15,"linear",0.1,0,"L",2.0688,TRUE,0.1,2,8,"Male","White","Not Hispanic or Latino","English","Lab","PA","2-8-2-8",21.90554415,21.90554415,1,8
"348",1,"Oct-2014",3,15,"linear",0.1,0,"R",2.4519,FALSE,0.1,4,8,"Male","White","Not Hispanic or Latino","English","Lab","PA","2-8-2-8",21.90554415,21.90554415,1,8
"349",1,"Oct-2014",3,16,"linear",0.15,0,"L",1.062,TRUE,0.15,1,2,"Male","White","Not Hispanic or Latino","English","Lab","PA","2-8-2-8",21.90554415,21.90554415,1,2
"350",1,"Oct-2014",3,16,"linear",0.15,0,"L",1.0343,TRUE,0.15,3,2,"Male","White","Not Hispanic or Latino","English","Lab","PA","2-8-2-8",21.90554415,21.90554415,1,2
"351",1,"Oct-2014",3,16,"linear",0,0.05,"L",1.1347,FALSE,0.05,2,8,"Male","White","Not Hispanic or Latino","English","Lab","PA","2-8-2-8",21.90554415,21.90554415,1,8
"352",1,"Oct-2014",3,16,"linear",0,0.05,"R",2.1519,TRUE,0.05,4,8,"Male","White","Not Hispanic or Latino","English","Lab","PA","2-8-2-8",21.90554415,21.90554415,1,8
"353",1,"Oct-2014",4,1,"linear",0.1,0,"L",0.98631,TRUE,0.1,1,2,"Male","White","Not Hispanic or Latino","English","Lab","PA","2-8-2-8",21.90554415,21.90554415,1,2
"354",1,"Oct-2014",4,1,"linear",0.1,0,"L",3.72,TRUE,0.1,3,2,"Male","White","Not Hispanic or Latino","English","Lab","PA","2-8-2-8",21.90554415,21.90554415,1,2
"355",1,"Oct-2014",4,1,"radial",0.15,0,"L",2.6857,TRUE,0.15,2,8,"Male","White","Not Hispanic or Latino","English","Lab","PA","2-8-2-8",21.90554415,21.90554415,1,8
"356",1,"Oct-2014",4,1,"radial",0.15,0,"L",1.5915,TRUE,0.15,4,8,"Male","White","Not Hispanic or Latino","English","Lab","PA","2-8-2-8",21.90554415,21.90554415,1,8
"357",1,"Oct-2014",4,2,"radial",0.2,0,"L",1.4514,TRUE,0.2,1,2,"Male","White","Not Hispanic or Latino","English","Lab","PA","2-8-2-8",21.90554415,21.90554415,1,2
"358",1,"Oct-2014",4,2,"radial",0.2,0,"L",1.0176,TRUE,0.2,3,2,"Male","White","Not Hispanic or Latino","English","Lab","PA","2-8-2-8",21.90554415,21.90554415,1,2
"359",1,"Oct-2014",4,2,"linear",0.2,0,"L",1.2846,TRUE,0.2,2,8,"Male","White","Not Hispanic or Latino","English","Lab","PA","2-8-2-8",21.90554415,21.90554415,1,8
"360",1,"Oct-2014",4,2,"linear",0.2,0,"L",0.76747,TRUE,0.2,4,8,"Male","White","Not Hispanic or Latino","English","Lab","PA","2-8-2-8",21.90554415,21.90554415,1,8
"361",1,"Oct-2014",4,3,"radial",0,0.05,"R",2.6522,TRUE,0.05,1,2,"Male","White","Not Hispanic or Latino","English","Lab","PA","2-8-2-8",21.90554415,21.90554415,1,2
"362",1,"Oct-2014",4,3,"radial",0,0.05,"L",1.4347,FALSE,0.05,3,2,"Male","White","Not Hispanic or Latino","English","Lab","PA","2-8-2-8",21.90554415,21.90554415,1,2
"363",1,"Oct-2014",4,3,"radial",0.1,0,"R",2.6691,FALSE,0.1,2,8,"Male","White","Not Hispanic or Latino","English","Lab","PA","2-8-2-8",21.90554415,21.90554415,1,8
"364",1,"Oct-2014",4,3,"radial",0.1,0,"R",2.4886,FALSE,0.1,4,8,"Male","White","Not Hispanic or Latino","English","Lab","PA","2-8-2-8",21.90554415,21.90554415,1,8
"365",1,"Oct-2014",4,4,"linear",0.2,0,"L",0.86755,TRUE,0.2,1,2,"Male","White","Not Hispanic or Latino","English","Lab","PA","2-8-2-8",21.90554415,21.90554415,1,2
"366",1,"Oct-2014",4,4,"linear",0.2,0,"L",0.90088,TRUE,0.2,3,2,"Male","White","Not Hispanic or Latino","English","Lab","PA","2-8-2-8",21.90554415,21.90554415,1,2
"367",1,"Oct-2014",4,4,"radial",0,0.15,"L",1.9518,FALSE,0.15,2,8,"Male","White","Not Hispanic or Latino","English","Lab","PA","2-8-2-8",21.90554415,21.90554415,1,8
"368",1,"Oct-2014",4,4,"radial",0,0.15,"R",1.1345,TRUE,0.15,4,8,"Male","White","Not Hispanic or Latino","English","Lab","PA","2-8-2-8",21.90554415,21.90554415,1,8
"369",1,"Oct-2014",4,5,"linear",0.05,0,"R",1.7018,FALSE,0.05,1,2,"Male","White","Not Hispanic or Latino","English","Lab","PA","2-8-2-8",21.90554415,21.90554415,1,2
"370",1,"Oct-2014",4,5,"linear",0.05,0,"R",1.3349,FALSE,0.05,3,2,"Male","White","Not Hispanic or Latino","English","Lab","PA","2-8-2-8",21.90554415,21.90554415,1,2
"371",1,"Oct-2014",4,5,"linear",0,0.1,"R",2.0518,TRUE,0.1,2,8,"Male","White","Not Hispanic or Latino","English","Lab","PA","2-8-2-8",21.90554415,21.90554415,1,8
"372",1,"Oct-2014",4,5,"linear",0,0.1,"R",1.5682,TRUE,0.1,4,8,"Male","White","Not Hispanic or Latino","English","Lab","PA","2-8-2-8",21.90554415,21.90554415,1,8
"373",1,"Oct-2014",4,6,"radial",0,0.2,"R",1.1846,TRUE,0.2,1,2,"Male","White","Not Hispanic or Latino","English","Lab","PA","2-8-2-8",21.90554415,21.90554415,1,2
"374",1,"Oct-2014",4,6,"radial",0,0.2,"R",1.3533,TRUE,0.2,3,2,"Male","White","Not Hispanic or Latino","English","Lab","PA","2-8-2-8",21.90554415,21.90554415,1,2
"375",1,"Oct-2014",4,6,"radial",0,0.2,"R",0.93416,TRUE,0.2,2,8,"Male","White","Not Hispanic or Latino","English","Lab","PA","2-8-2-8",21.90554415,21.90554415,1,8
"376",1,"Oct-2014",4,6,"radial",0,0.2,"R",0.79248,TRUE,0.2,4,8,"Male","White","Not Hispanic or Latino","English","Lab","PA","2-8-2-8",21.90554415,21.90554415,1,8
"377",1,"Oct-2014",4,7,"radial",0,0.15,"L",0.96784,FALSE,0.15,1,2,"Male","White","Not Hispanic or Latino","English","Lab","PA","2-8-2-8",21.90554415,21.90554415,1,2
"378",1,"Oct-2014",4,7,"radial",0,0.15,"R",1.6035,TRUE,0.15,3,2,"Male","White","Not Hispanic or Latino","English","Lab","PA","2-8-2-8",21.90554415,21.90554415,1,2
"379",1,"Oct-2014",4,7,"radial",0.05,0,"L",3.7202,TRUE,0.05,2,8,"Male","White","Not Hispanic or Latino","English","Lab","PA","2-8-2-8",21.90554415,21.90554415,1,8
"380",1,"Oct-2014",4,7,"radial",0.05,0,"R",3.2361,FALSE,0.05,4,8,"Male","White","Not Hispanic or Latino","English","Lab","PA","2-8-2-8",21.90554415,21.90554415,1,8
"381",1,"Oct-2014",4,8,"linear",0,0.2,"R",1.8853,TRUE,0.2,1,2,"Male","White","Not Hispanic or Latino","English","Lab","PA","2-8-2-8",21.90554415,21.90554415,1,2
"382",1,"Oct-2014",4,8,"linear",0,0.2,"R",0.96778,TRUE,0.2,3,2,"Male","White","Not Hispanic or Latino","English","Lab","PA","2-8-2-8",21.90554415,21.90554415,1,2
"383",1,"Oct-2014",4,8,"linear",0.15,0,"L",1.101,TRUE,0.15,2,8,"Male","White","Not Hispanic or Latino","English","Lab","PA","2-8-2-8",21.90554415,21.90554415,1,8
"384",1,"Oct-2014",4,8,"linear",0.15,0,"L",0.75513,TRUE,0.15,4,8,"Male","White","Not Hispanic or Latino","English","Lab","PA","2-8-2-8",21.90554415,21.90554415,1,8
"385",1,"Oct-2014",4,9,"linear",0,0.15,"L",1.1676,FALSE,0.15,1,2,"Male","White","Not Hispanic or Latino","English","Lab","PA","2-8-2-8",21.90554415,21.90554415,1,2
"386",1,"Oct-2014",4,9,"linear",0,0.15,"R",1.601,TRUE,0.15,3,2,"Male","White","Not Hispanic or Latino","English","Lab","PA","2-8-2-8",21.90554415,21.90554415,1,2
"387",1,"Oct-2014",4,9,"radial",0,0.1,"L",1.8016,FALSE,0.1,2,8,"Male","White","Not Hispanic or Latino","English","Lab","PA","2-8-2-8",21.90554415,21.90554415,1,8
"388",1,"Oct-2014",4,9,"radial",0,0.1,"R",2.5357,TRUE,0.1,4,8,"Male","White","Not Hispanic or Latino","English","Lab","PA","2-8-2-8",21.90554415,21.90554415,1,8
"389",1,"Oct-2014",4,10,"linear",0,0.1,"R",1.9349,TRUE,0.1,1,2,"Male","White","Not Hispanic or Latino","English","Lab","PA","2-8-2-8",21.90554415,21.90554415,1,2
"390",1,"Oct-2014",4,10,"linear",0,0.1,"L",1.5345,FALSE,0.1,3,2,"Male","White","Not Hispanic or Latino","English","Lab","PA","2-8-2-8",21.90554415,21.90554415,1,2
"391",1,"Oct-2014",4,10,"radial",0,0.05,"L",1.9684,FALSE,0.05,2,8,"Male","White","Not Hispanic or Latino","English","Lab","PA","2-8-2-8",21.90554415,21.90554415,1,8
"392",1,"Oct-2014",4,10,"radial",0,0.05,"R",1.1844,TRUE,0.05,4,8,"Male","White","Not Hispanic or Latino","English","Lab","PA","2-8-2-8",21.90554415,21.90554415,1,8
"393",1,"Oct-2014",4,11,"radial",0.05,0,"L",1.8351,TRUE,0.05,1,2,"Male","White","Not Hispanic or Latino","English","Lab","PA","2-8-2-8",21.90554415,21.90554415,1,2
"394",1,"Oct-2014",4,11,"radial",0.05,0,"L",2.7527,TRUE,0.05,3,2,"Male","White","Not Hispanic or Latino","English","Lab","PA","2-8-2-8",21.90554415,21.90554415,1,2
"395",1,"Oct-2014",4,11,"radial",0.2,0,"L",0.93455,TRUE,0.2,2,8,"Male","White","Not Hispanic or Latino","English","Lab","PA","2-8-2-8",21.90554415,21.90554415,1,8
"396",1,"Oct-2014",4,11,"radial",0.2,0,"L",1.0179,TRUE,0.2,4,8,"Male","White","Not Hispanic or Latino","English","Lab","PA","2-8-2-8",21.90554415,21.90554415,1,8
"397",1,"Oct-2014",4,12,"linear",0,0.05,"R",1.4016,TRUE,0.05,1,2,"Male","White","Not Hispanic or Latino","English","Lab","PA","2-8-2-8",21.90554415,21.90554415,1,2
"398",1,"Oct-2014",4,12,"linear",0,0.05,"R",2.2884,TRUE,0.05,3,2,"Male","White","Not Hispanic or Latino","English","Lab","PA","2-8-2-8",21.90554415,21.90554415,1,2
"399",1,"Oct-2014",4,12,"linear",0.05,0,"L",2.8885,TRUE,0.05,2,8,"Male","White","Not Hispanic or Latino","English","Lab","PA","2-8-2-8",21.90554415,21.90554415,1,8
"400",1,"Oct-2014",4,12,"linear",0.05,0,"L",2.7691,TRUE,0.05,4,8,"Male","White","Not Hispanic or Latino","English","Lab","PA","2-8-2-8",21.90554415,21.90554415,1,8
"401",1,"Oct-2014",4,13,"radial",0.15,0,"L",1.7512,TRUE,0.15,1,2,"Male","White","Not Hispanic or Latino","English","Lab","PA","2-8-2-8",21.90554415,21.90554415,1,2
"402",1,"Oct-2014",4,13,"radial",0.15,0,"L",1.8187,TRUE,0.15,3,2,"Male","White","Not Hispanic or Latino","English","Lab","PA","2-8-2-8",21.90554415,21.90554415,1,2
"403",1,"Oct-2014",4,13,"linear",0,0.15,"R",1.3756,TRUE,0.15,2,8,"Male","White","Not Hispanic or Latino","English","Lab","PA","2-8-2-8",21.90554415,21.90554415,1,8
"404",1,"Oct-2014",4,13,"linear",0,0.15,"R",2.5856,TRUE,0.15,4,8,"Male","White","Not Hispanic or Latino","English","Lab","PA","2-8-2-8",21.90554415,21.90554415,1,8
"405",1,"Oct-2014",4,14,"linear",0.15,0,"R",3.0691,FALSE,0.15,1,2,"Male","White","Not Hispanic or Latino","English","Lab","PA","2-8-2-8",21.90554415,21.90554415,1,2
"406",1,"Oct-2014",4,14,"linear",0.15,0,"L",0.96766,TRUE,0.15,3,2,"Male","White","Not Hispanic or Latino","English","Lab","PA","2-8-2-8",21.90554415,21.90554415,1,2
"407",1,"Oct-2014",4,14,"linear",0,0.2,"R",1.6014,TRUE,0.2,2,8,"Male","White","Not Hispanic or Latino","English","Lab","PA","2-8-2-8",21.90554415,21.90554415,1,8
"408",1,"Oct-2014",4,14,"linear",0,0.2,"R",0.88431,TRUE,0.2,4,8,"Male","White","Not Hispanic or Latino","English","Lab","PA","2-8-2-8",21.90554415,21.90554415,1,8
"409",1,"Oct-2014",4,15,"radial",0,0.1,"R",2.1204,TRUE,0.1,1,2,"Male","White","Not Hispanic or Latino","English","Lab","PA","2-8-2-8",21.90554415,21.90554415,1,2
"410",1,"Oct-2014",4,15,"radial",0,0.1,"L",1.4008,FALSE,0.1,3,2,"Male","White","Not Hispanic or Latino","English","Lab","PA","2-8-2-8",21.90554415,21.90554415,1,2
"411",1,"Oct-2014",4,15,"linear",0.1,0,"L",1.2511,TRUE,0.1,2,8,"Male","White","Not Hispanic or Latino","English","Lab","PA","2-8-2-8",21.90554415,21.90554415,1,8
"412",1,"Oct-2014",4,15,"linear",0.1,0,"L",0.96781,TRUE,0.1,4,8,"Male","White","Not Hispanic or Latino","English","Lab","PA","2-8-2-8",21.90554415,21.90554415,1,8
"413",1,"Oct-2014",4,16,"radial",0.1,0,"L",2.5859,TRUE,0.1,1,2,"Male","White","Not Hispanic or Latino","English","Lab","PA","2-8-2-8",21.90554415,21.90554415,1,2
"414",1,"Oct-2014",4,16,"radial",0.1,0,"L",2.3188,TRUE,0.1,3,2,"Male","White","Not Hispanic or Latino","English","Lab","PA","2-8-2-8",21.90554415,21.90554415,1,2
"415",1,"Oct-2014",4,16,"linear",0,0.05,"R",2.4764,TRUE,0.05,2,8,"Male","White","Not Hispanic or Latino","English","Lab","PA","2-8-2-8",21.90554415,21.90554415,1,8
"416",1,"Oct-2014",4,16,"linear",0,0.05,"R",1.7682,TRUE,0.05,4,8,"Male","White","Not Hispanic or Latino","English","Lab","PA","2-8-2-8",21.90554415,21.90554415,1,8
"417",1,"Oct-2014",5,1,"radial",0.2,0,"L",0.81775,TRUE,0.2,1,2,"Male","White","Not Hispanic or Latino","English","Lab","PA","2-8-2-8",21.90554415,21.90554415,1,2
"418",1,"Oct-2014",5,1,"radial",0.2,0,"L",1.1347,TRUE,0.2,3,2,"Male","White","Not Hispanic or Latino","English","Lab","PA","2-8-2-8",21.90554415,21.90554415,1,2
"419",1,"Oct-2014",5,1,"linear",0.2,0,"L",0.76737,TRUE,0.2,2,8,"Male","White","Not Hispanic or Latino","English","Lab","PA","2-8-2-8",21.90554415,21.90554415,1,8
"420",1,"Oct-2014",5,1,"linear",0.2,0,"L",0.93419,TRUE,0.2,4,8,"Male","White","Not Hispanic or Latino","English","Lab","PA","2-8-2-8",21.90554415,21.90554415,1,8
"421",1,"Oct-2014",5,2,"linear",0.1,0,"R",2.0029,FALSE,0.1,1,2,"Male","White","Not Hispanic or Latino","English","Lab","PA","2-8-2-8",21.90554415,21.90554415,1,2
"422",1,"Oct-2014",5,2,"linear",0.1,0,"R",1.2702,FALSE,0.1,3,2,"Male","White","Not Hispanic or Latino","English","Lab","PA","2-8-2-8",21.90554415,21.90554415,1,2
"423",1,"Oct-2014",5,2,"radial",0.15,0,"L",1.168,TRUE,0.15,2,8,"Male","White","Not Hispanic or Latino","English","Lab","PA","2-8-2-8",21.90554415,21.90554415,1,8
"424",1,"Oct-2014",5,2,"radial",0.15,0,"L",1.0675,TRUE,0.15,4,8,"Male","White","Not Hispanic or Latino","English","Lab","PA","2-8-2-8",21.90554415,21.90554415,1,8
"425",1,"Oct-2014",5,3,"linear",0.2,0,"L",0.90114,TRUE,0.2,1,2,"Male","White","Not Hispanic or Latino","English","Lab","PA","2-8-2-8",21.90554415,21.90554415,1,2
"426",1,"Oct-2014",5,3,"linear",0.2,0,"L",0.8176,TRUE,0.2,3,2,"Male","White","Not Hispanic or Latino","English","Lab","PA","2-8-2-8",21.90554415,21.90554415,1,2
"427",1,"Oct-2014",5,3,"linear",0,0.1,"L",1.2348,FALSE,0.1,2,8,"Male","White","Not Hispanic or Latino","English","Lab","PA","2-8-2-8",21.90554415,21.90554415,1,8
"428",1,"Oct-2014",5,3,"linear",0,0.1,"R",1.3011,TRUE,0.1,4,8,"Male","White","Not Hispanic or Latino","English","Lab","PA","2-8-2-8",21.90554415,21.90554415,1,8
"429",1,"Oct-2014",5,4,"radial",0,0.05,"R",1.2349,TRUE,0.05,1,2,"Male","White","Not Hispanic or Latino","English","Lab","PA","2-8-2-8",21.90554415,21.90554415,1,2
"430",1,"Oct-2014",5,4,"radial",0,0.05,"L",1.3177,FALSE,0.05,3,2,"Male","White","Not Hispanic or Latino","English","Lab","PA","2-8-2-8",21.90554415,21.90554415,1,2
"431",1,"Oct-2014",5,4,"radial",0.1,0,"L",1.8849,TRUE,0.1,2,8,"Male","White","Not Hispanic or Latino","English","Lab","PA","2-8-2-8",21.90554415,21.90554415,1,8
"432",1,"Oct-2014",5,4,"radial",0.1,0,"L",1.2847,TRUE,0.1,4,8,"Male","White","Not Hispanic or Latino","English","Lab","PA","2-8-2-8",21.90554415,21.90554415,1,8
"433",1,"Oct-2014",5,5,"radial",0,0.2,"R",1.4548,TRUE,0.2,1,2,"Male","White","Not Hispanic or Latino","English","Lab","PA","2-8-2-8",21.90554415,21.90554415,1,2
"434",1,"Oct-2014",5,5,"radial",0,0.2,"R",0.90088,TRUE,0.2,3,2,"Male","White","Not Hispanic or Latino","English","Lab","PA","2-8-2-8",21.90554415,21.90554415,1,2
"435",1,"Oct-2014",5,5,"linear",0.15,0,"L",1.3012,TRUE,0.15,2,8,"Male","White","Not Hispanic or Latino","English","Lab","PA","2-8-2-8",21.90554415,21.90554415,1,8
"436",1,"Oct-2014",5,5,"linear",0.15,0,"L",0.93407,TRUE,0.15,4,8,"Male","White","Not Hispanic or Latino","English","Lab","PA","2-8-2-8",21.90554415,21.90554415,1,8
"437",1,"Oct-2014",5,6,"linear",0.05,0,"L",1.735,TRUE,0.05,1,2,"Male","White","Not Hispanic or Latino","English","Lab","PA","2-8-2-8",21.90554415,21.90554415,1,2
"438",1,"Oct-2014",5,6,"linear",0.05,0,"R",1.5846,FALSE,0.05,3,2,"Male","White","Not Hispanic or Latino","English","Lab","PA","2-8-2-8",21.90554415,21.90554415,1,2
"439",1,"Oct-2014",5,6,"radial",0,0.15,"L",1.1177,FALSE,0.15,2,8,"Male","White","Not Hispanic or Latino","English","Lab","PA","2-8-2-8",21.90554415,21.90554415,1,8
"440",1,"Oct-2014",5,6,"radial",0,0.15,"R",1.235,TRUE,0.15,4,8,"Male","White","Not Hispanic or Latino","English","Lab","PA","2-8-2-8",21.90554415,21.90554415,1,8
"441",1,"Oct-2014",5,7,"linear",0,0.2,"R",2.1192,TRUE,0.2,1,2,"Male","White","Not Hispanic or Latino","English","Lab","PA","2-8-2-8",21.90554415,21.90554415,1,2
"442",1,"Oct-2014",5,7,"linear",0,0.2,"R",1.0509,TRUE,0.2,3,2,"Male","White","Not Hispanic or Latino","English","Lab","PA","2-8-2-8",21.90554415,21.90554415,1,2
"443",1,"Oct-2014",5,7,"radial",0,0.2,"R",0.91767,TRUE,0.2,2,8,"Male","White","Not Hispanic or Latino","English","Lab","PA","2-8-2-8",21.90554415,21.90554415,1,8
"444",1,"Oct-2014",5,7,"radial",0,0.2,"R",0.95087,TRUE,0.2,4,8,"Male","White","Not Hispanic or Latino","English","Lab","PA","2-8-2-8",21.90554415,21.90554415,1,8
"445",1,"Oct-2014",5,8,"radial",0,0.15,"R",1.2176,TRUE,0.15,1,2,"Male","White","Not Hispanic or Latino","English","Lab","PA","2-8-2-8",21.90554415,21.90554415,1,2
"446",1,"Oct-2014",5,8,"radial",0,0.15,"R",1.2697,TRUE,0.15,3,2,"Male","White","Not Hispanic or Latino","English","Lab","PA","2-8-2-8",21.90554415,21.90554415,1,2
"447",1,"Oct-2014",5,8,"radial",0.05,0,"L",3.72,TRUE,0.05,2,8,"Male","White","Not Hispanic or Latino","English","Lab","PA","2-8-2-8",21.90554415,21.90554415,1,8
"448",1,"Oct-2014",5,8,"radial",0.05,0,"R",2.6691,FALSE,0.05,4,8,"Male","White","Not Hispanic or Latino","English","Lab","PA","2-8-2-8",21.90554415,21.90554415,1,8
"449",1,"Oct-2014",5,9,"radial",0.05,0,"R",2.9192,FALSE,0.05,1,2,"Male","White","Not Hispanic or Latino","English","Lab","PA","2-8-2-8",21.90554415,21.90554415,1,2
"450",1,"Oct-2014",5,9,"radial",0.05,0,"L",1.7684,TRUE,0.05,3,2,"Male","White","Not Hispanic or Latino","English","Lab","PA","2-8-2-8",21.90554415,21.90554415,1,2
"451",1,"Oct-2014",5,9,"linear",0.05,0,"L",1.2011,TRUE,0.05,2,8,"Male","White","Not Hispanic or Latino","English","Lab","PA","2-8-2-8",21.90554415,21.90554415,1,8
"452",1,"Oct-2014",5,9,"linear",0.05,0,"L",1.0008,TRUE,0.05,4,8,"Male","White","Not Hispanic or Latino","English","Lab","PA","2-8-2-8",21.90554415,21.90554415,1,8
"453",1,"Oct-2014",5,10,"radial",0.15,0,"L",1.135,TRUE,0.15,1,2,"Male","White","Not Hispanic or Latino","English","Lab","PA","2-8-2-8",21.90554415,21.90554415,1,2
"454",1,"Oct-2014",5,10,"radial",0.15,0,"L",2.5307,TRUE,0.15,3,2,"Male","White","Not Hispanic or Latino","English","Lab","PA","2-8-2-8",21.90554415,21.90554415,1,2
"455",1,"Oct-2014",5,10,"linear",0,0.15,"R",2.5082,TRUE,0.15,2,8,"Male","White","Not Hispanic or Latino","English","Lab","PA","2-8-2-8",21.90554415,21.90554415,1,8
"456",1,"Oct-2014",5,10,"linear",0,0.15,"R",1.6012,TRUE,0.15,4,8,"Male","White","Not Hispanic or Latino","English","Lab","PA","2-8-2-8",21.90554415,21.90554415,1,8
"457",1,"Oct-2014",5,11,"radial",0,0.1,"L",2.9196,FALSE,0.1,1,2,"Male","White","Not Hispanic or Latino","English","Lab","PA","2-8-2-8",21.90554415,21.90554415,1,2
"458",1,"Oct-2014",5,11,"radial",0,0.1,"L",1.3352,FALSE,0.1,3,2,"Male","White","Not Hispanic or Latino","English","Lab","PA","2-8-2-8",21.90554415,21.90554415,1,2
"459",1,"Oct-2014",5,11,"linear",0,0.2,"R",1.0915,TRUE,0.2,2,8,"Male","White","Not Hispanic or Latino","English","Lab","PA","2-8-2-8",21.90554415,21.90554415,1,8
"460",1,"Oct-2014",5,11,"linear",0,0.2,"R",1.3392,TRUE,0.2,4,8,"Male","White","Not Hispanic or Latino","English","Lab","PA","2-8-2-8",21.90554415,21.90554415,1,8
"461",1,"Oct-2014",5,12,"radial",0.1,0,"L",1.8184,TRUE,0.1,1,2,"Male","White","Not Hispanic or Latino","English","Lab","PA","2-8-2-8",21.90554415,21.90554415,1,2
"462",1,"Oct-2014",5,12,"radial",0.1,0,"R",1.3176,FALSE,0.1,3,2,"Male","White","Not Hispanic or Latino","English","Lab","PA","2-8-2-8",21.90554415,21.90554415,1,2
"463",1,"Oct-2014",5,12,"radial",0,0.1,"R",1.5347,TRUE,0.1,2,8,"Male","White","Not Hispanic or Latino","English","Lab","PA","2-8-2-8",21.90554415,21.90554415,1,8
"464",1,"Oct-2014",5,12,"radial",0,0.1,"R",NA,TRUE,0.1,4,8,"Male","White","Not Hispanic or Latino","English","Lab","PA","2-8-2-8",21.90554415,21.90554415,1,8
"465",1,"Oct-2014",5,13,"linear",0,0.15,"R",1.6184,TRUE,0.15,1,2,"Male","White","Not Hispanic or Latino","English","Lab","PA","2-8-2-8",21.90554415,21.90554415,1,2
"466",1,"Oct-2014",5,13,"linear",0,0.15,"R",1.0178,TRUE,0.15,3,2,"Male","White","Not Hispanic or Latino","English","Lab","PA","2-8-2-8",21.90554415,21.90554415,1,2
"467",1,"Oct-2014",5,13,"radial",0,0.05,"R",2.0354,TRUE,0.05,2,8,"Male","White","Not Hispanic or Latino","English","Lab","PA","2-8-2-8",21.90554415,21.90554415,1,8
"468",1,"Oct-2014",5,13,"radial",0,0.05,"R",1.2257,TRUE,0.05,4,8,"Male","White","Not Hispanic or Latino","English","Lab","PA","2-8-2-8",21.90554415,21.90554415,1,8
"469",1,"Oct-2014",5,14,"linear",0,0.1,"R",2.4521,TRUE,0.1,1,2,"Male","White","Not Hispanic or Latino","English","Lab","PA","2-8-2-8",21.90554415,21.90554415,1,2
"470",1,"Oct-2014",5,14,"linear",0,0.1,"R",1.4343,TRUE,0.1,3,2,"Male","White","Not Hispanic or Latino","English","Lab","PA","2-8-2-8",21.90554415,21.90554415,1,2
"471",1,"Oct-2014",5,14,"linear",0.1,0,"L",1.0175,TRUE,0.1,2,8,"Male","White","Not Hispanic or Latino","English","Lab","PA","2-8-2-8",21.90554415,21.90554415,1,8
"472",1,"Oct-2014",5,14,"linear",0.1,0,"L",1.3179,TRUE,0.1,4,8,"Male","White","Not Hispanic or Latino","English","Lab","PA","2-8-2-8",21.90554415,21.90554415,1,8
"473",1,"Oct-2014",5,15,"linear",0,0.05,"R",2.1519,TRUE,0.05,1,2,"Male","White","Not Hispanic or Latino","English","Lab","PA","2-8-2-8",21.90554415,21.90554415,1,2
"474",1,"Oct-2014",5,15,"linear",0,0.05,"R",1.902,TRUE,0.05,3,2,"Male","White","Not Hispanic or Latino","English","Lab","PA","2-8-2-8",21.90554415,21.90554415,1,2
"475",1,"Oct-2014",5,15,"radial",0.2,0,"L",0.68814,TRUE,0.2,2,8,"Male","White","Not Hispanic or Latino","English","Lab","PA","2-8-2-8",21.90554415,21.90554415,1,8
"476",1,"Oct-2014",5,15,"radial",0.2,0,"L",0.91764,TRUE,0.2,4,8,"Male","White","Not Hispanic or Latino","English","Lab","PA","2-8-2-8",21.90554415,21.90554415,1,8
"477",1,"Oct-2014",5,16,"linear",0.15,0,"L",0.86788,TRUE,0.15,1,2,"Male","White","Not Hispanic or Latino","English","Lab","PA","2-8-2-8",21.90554415,21.90554415,1,2
"478",1,"Oct-2014",5,16,"linear",0.15,0,"L",1.0676,TRUE,0.15,3,2,"Male","White","Not Hispanic or Latino","English","Lab","PA","2-8-2-8",21.90554415,21.90554415,1,2
"479",1,"Oct-2014",5,16,"linear",0,0.05,"R",1.6682,TRUE,0.05,2,8,"Male","White","Not Hispanic or Latino","English","Lab","PA","2-8-2-8",21.90554415,21.90554415,1,8
"480",1,"Oct-2014",5,16,"linear",0,0.05,"R",1.4845,TRUE,0.05,4,8,"Male","White","Not Hispanic or Latino","English","Lab","PA","2-8-2-8",21.90554415,21.90554415,1,8
"481",2,"Nov-2014",1,1,"linear",0.1,0,"L",NA,TRUE,0.1,1,2,"Male","Asian","Not Hispanic or Latino","English","Lab","PA","2-8-8-2",20.678987,20.678987,2,2
"482",2,"Nov-2014",1,1,"linear",0.1,0,"L",1.9181,TRUE,0.1,4,2,"Male","Asian","Not Hispanic or Latino","English","Lab","PA","2-8-8-2",20.678987,20.678987,2,2
"483",2,"Nov-2014",1,1,"radial",0.15,0,"L",1.2678,TRUE,0.15,2,8,"Male","Asian","Not Hispanic or Latino","English","Lab","PA","2-8-8-2",20.678987,20.678987,2,8
"484",2,"Nov-2014",1,1,"radial",0.15,0,"L",1.4514,TRUE,0.15,3,8,"Male","Asian","Not Hispanic or Latino","English","Lab","PA","2-8-8-2",20.678987,20.678987,2,8
"485",2,"Nov-2014",1,2,"linear",0.2,0,"L",2.069,TRUE,0.2,1,2,"Male","Asian","Not Hispanic or Latino","English","Lab","PA","2-8-8-2",20.678987,20.678987,2,2
"486",2,"Nov-2014",1,2,"linear",0.2,0,"L",0.734,TRUE,0.2,4,2,"Male","Asian","Not Hispanic or Latino","English","Lab","PA","2-8-8-2",20.678987,20.678987,2,2
"487",2,"Nov-2014",1,2,"radial",0.1,0,"R",1.0247,FALSE,0.1,2,8,"Male","Asian","Not Hispanic or Latino","English","Lab","PA","2-8-8-2",20.678987,20.678987,2,8
"488",2,"Nov-2014",1,2,"radial",0.1,0,"R",2.1018,FALSE,0.1,3,8,"Male","Asian","Not Hispanic or Latino","English","Lab","PA","2-8-8-2",20.678987,20.678987,2,8
"489",2,"Nov-2014",1,3,"radial",0.2,0,"L",2.0518,TRUE,0.2,1,2,"Male","Asian","Not Hispanic or Latino","English","Lab","PA","2-8-8-2",20.678987,20.678987,2,2
"490",2,"Nov-2014",1,3,"radial",0.2,0,"L",0.86756,TRUE,0.2,4,2,"Male","Asian","Not Hispanic or Latino","English","Lab","PA","2-8-8-2",20.678987,20.678987,2,2
"491",2,"Nov-2014",1,3,"radial",0,0.15,"R",1.5014,TRUE,0.15,2,8,"Male","Asian","Not Hispanic or Latino","English","Lab","PA","2-8-8-2",20.678987,20.678987,2,8
"492",2,"Nov-2014",1,3,"radial",0,0.15,"R",1.5513,TRUE,0.15,3,8,"Male","Asian","Not Hispanic or Latino","English","Lab","PA","2-8-8-2",20.678987,20.678987,2,8
"493",2,"Nov-2014",1,4,"linear",0.05,0,"L",2.3186,TRUE,0.05,1,2,"Male","Asian","Not Hispanic or Latino","English","Lab","PA","2-8-8-2",20.678987,20.678987,2,2
"494",2,"Nov-2014",1,4,"linear",0.05,0,"L",2.6024,TRUE,0.05,4,2,"Male","Asian","Not Hispanic or Latino","English","Lab","PA","2-8-8-2",20.678987,20.678987,2,2
"495",2,"Nov-2014",1,4,"radial",0,0.2,"R",1.1213,TRUE,0.2,2,8,"Male","Asian","Not Hispanic or Latino","English","Lab","PA","2-8-8-2",20.678987,20.678987,2,8
"496",2,"Nov-2014",1,4,"radial",0,0.2,"R",2.5357,TRUE,0.2,3,8,"Male","Asian","Not Hispanic or Latino","English","Lab","PA","2-8-8-2",20.678987,20.678987,2,8
"497",2,"Nov-2014",1,5,"linear",0,0.2,"L",4.8548,FALSE,0.2,1,2,"Male","Asian","Not Hispanic or Latino","English","Lab","PA","2-8-8-2",20.678987,20.678987,2,2
"498",2,"Nov-2014",1,5,"linear",0,0.2,"R",0.93424,TRUE,0.2,4,2,"Male","Asian","Not Hispanic or Latino","English","Lab","PA","2-8-8-2",20.678987,20.678987,2,2
"499",2,"Nov-2014",1,5,"radial",0.05,0,"R",2.5356,FALSE,0.05,2,8,"Male","Asian","Not Hispanic or Latino","English","Lab","PA","2-8-8-2",20.678987,20.678987,2,8
"500",2,"Nov-2014",1,5,"radial",0.05,0,"L",2.1019,TRUE,0.05,3,8,"Male","Asian","Not Hispanic or Latino","English","Lab","PA","2-8-8-2",20.678987,20.678987,2,8
"501",2,"Nov-2014",1,6,"radial",0,0.05,"L",2.6022,FALSE,0.05,1,2,"Male","Asian","Not Hispanic or Latino","English","Lab","PA","2-8-8-2",20.678987,20.678987,2,2
"502",2,"Nov-2014",1,6,"radial",0,0.05,"L",2.7023,FALSE,0.05,4,2,"Male","Asian","Not Hispanic or Latino","English","Lab","PA","2-8-8-2",20.678987,20.678987,2,2
"503",2,"Nov-2014",1,6,"linear",0.2,0,"L",1.5179,TRUE,0.2,2,8,"Male","Asian","Not Hispanic or Latino","English","Lab","PA","2-8-8-2",20.678987,20.678987,2,8
"504",2,"Nov-2014",1,6,"linear",0.2,0,"L",0.75089,TRUE,0.2,3,8,"Male","Asian","Not Hispanic or Latino","English","Lab","PA","2-8-8-2",20.678987,20.678987,2,8
"505",2,"Nov-2014",1,7,"radial",0,0.2,"R",2.6208,TRUE,0.2,1,2,"Male","Asian","Not Hispanic or Latino","English","Lab","PA","2-8-8-2",20.678987,20.678987,2,2
"506",2,"Nov-2014",1,7,"radial",0,0.2,"R",1.0514,TRUE,0.2,4,2,"Male","Asian","Not Hispanic or Latino","English","Lab","PA","2-8-8-2",20.678987,20.678987,2,2
"507",2,"Nov-2014",1,7,"linear",0,0.1,"R",2.819,TRUE,0.1,2,8,"Male","Asian","Not Hispanic or Latino","English","Lab","PA","2-8-8-2",20.678987,20.678987,2,8
"508",2,"Nov-2014",1,7,"linear",0,0.1,"R",0.96769,TRUE,0.1,3,8,"Male","Asian","Not Hispanic or Latino","English","Lab","PA","2-8-8-2",20.678987,20.678987,2,8
"509",2,"Nov-2014",1,8,"linear",0,0.15,"R",1.9017,TRUE,0.15,1,2,"Male","Asian","Not Hispanic or Latino","English","Lab","PA","2-8-8-2",20.678987,20.678987,2,2
"510",2,"Nov-2014",1,8,"linear",0,0.15,"R",2.4855,TRUE,0.15,4,2,"Male","Asian","Not Hispanic or Latino","English","Lab","PA","2-8-8-2",20.678987,20.678987,2,2
"511",2,"Nov-2014",1,8,"linear",0.15,0,"R",2.4021,FALSE,0.15,2,8,"Male","Asian","Not Hispanic or Latino","English","Lab","PA","2-8-8-2",20.678987,20.678987,2,8
"512",2,"Nov-2014",1,8,"linear",0.15,0,"L",0.71743,TRUE,0.15,3,8,"Male","Asian","Not Hispanic or Latino","English","Lab","PA","2-8-8-2",20.678987,20.678987,2,8
"513",2,"Nov-2014",1,9,"radial",0,0.15,"L",2.9868,FALSE,0.15,1,2,"Male","Asian","Not Hispanic or Latino","English","Lab","PA","2-8-8-2",20.678987,20.678987,2,2
"514",2,"Nov-2014",1,9,"radial",0,0.15,"R",1.1344,TRUE,0.15,4,2,"Male","Asian","Not Hispanic or Latino","English","Lab","PA","2-8-8-2",20.678987,20.678987,2,2
"515",2,"Nov-2014",1,9,"radial",0,0.1,"R",1.2009,TRUE,0.1,2,8,"Male","Asian","Not Hispanic or Latino","English","Lab","PA","2-8-8-2",20.678987,20.678987,2,8
"516",2,"Nov-2014",1,9,"radial",0,0.1,"R",1.139,TRUE,0.1,3,8,"Male","Asian","Not Hispanic or Latino","English","Lab","PA","2-8-8-2",20.678987,20.678987,2,8
"517",2,"Nov-2014",1,10,"linear",0,0.1,"R",4.9373,TRUE,0.1,1,2,"Male","Asian","Not Hispanic or Latino","English","Lab","PA","2-8-8-2",20.678987,20.678987,2,2
"518",2,"Nov-2014",1,10,"linear",0,0.1,"R",2.4188,TRUE,0.1,4,2,"Male","Asian","Not Hispanic or Latino","English","Lab","PA","2-8-8-2",20.678987,20.678987,2,2
"519",2,"Nov-2014",1,10,"linear",0.05,0,"L",2.5022,TRUE,0.05,2,8,"Male","Asian","Not Hispanic or Latino","English","Lab","PA","2-8-8-2",20.678987,20.678987,2,8
"520",2,"Nov-2014",1,10,"linear",0.05,0,"L",1.4347,TRUE,0.05,3,8,"Male","Asian","Not Hispanic or Latino","English","Lab","PA","2-8-8-2",20.678987,20.678987,2,8
"521",2,"Nov-2014",1,11,"radial",0.05,0,"R",3.2694,FALSE,0.05,1,2,"Male","Asian","Not Hispanic or Latino","English","Lab","PA","2-8-8-2",20.678987,20.678987,2,2
"522",2,"Nov-2014",1,11,"radial",0.05,0,"L",2.4356,TRUE,0.05,4,2,"Male","Asian","Not Hispanic or Latino","English","Lab","PA","2-8-8-2",20.678987,20.678987,2,2
"523",2,"Nov-2014",1,11,"radial",0,0.05,"R",2.6358,TRUE,0.05,2,8,"Male","Asian","Not Hispanic or Latino","English","Lab","PA","2-8-8-2",20.678987,20.678987,2,8
"524",2,"Nov-2014",1,11,"radial",0,0.05,"R",1.2011,TRUE,0.05,3,8,"Male","Asian","Not Hispanic or Latino","English","Lab","PA","2-8-8-2",20.678987,20.678987,2,8
"525",2,"Nov-2014",1,12,"linear",0,0.05,"L",5.0876,FALSE,0.05,1,2,"Male","Asian","Not Hispanic or Latino","English","Lab","PA","2-8-8-2",20.678987,20.678987,2,2
"526",2,"Nov-2014",1,12,"linear",0,0.05,"R",2.4022,TRUE,0.05,4,2,"Male","Asian","Not Hispanic or Latino","English","Lab","PA","2-8-8-2",20.678987,20.678987,2,2
"527",2,"Nov-2014",1,12,"radial",0.2,0,"L",0.76736,TRUE,0.2,2,8,"Male","Asian","Not Hispanic or Latino","English","Lab","PA","2-8-8-2",20.678987,20.678987,2,8
"528",2,"Nov-2014",1,12,"radial",0.2,0,"L",0.83414,TRUE,0.2,3,8,"Male","Asian","Not Hispanic or Latino","English","Lab","PA","2-8-8-2",20.678987,20.678987,2,8
"529",2,"Nov-2014",1,13,"radial",0.15,0,"L",4.604,TRUE,0.15,1,2,"Male","Asian","Not Hispanic or Latino","English","Lab","PA","2-8-8-2",20.678987,20.678987,2,2
"530",2,"Nov-2014",1,13,"radial",0.15,0,"L",0.78415,TRUE,0.15,4,2,"Male","Asian","Not Hispanic or Latino","English","Lab","PA","2-8-8-2",20.678987,20.678987,2,2
"531",2,"Nov-2014",1,13,"linear",0,0.15,"R",1.7182,TRUE,0.15,2,8,"Male","Asian","Not Hispanic or Latino","English","Lab","PA","2-8-8-2",20.678987,20.678987,2,8
"532",2,"Nov-2014",1,13,"linear",0,0.15,"R",1.101,TRUE,0.15,3,8,"Male","Asian","Not Hispanic or Latino","English","Lab","PA","2-8-8-2",20.678987,20.678987,2,8
"533",2,"Nov-2014",1,14,"linear",0.15,0,"L",3.3363,TRUE,0.15,1,2,"Male","Asian","Not Hispanic or Latino","English","Lab","PA","2-8-8-2",20.678987,20.678987,2,2
"534",2,"Nov-2014",1,14,"linear",0.15,0,"L",0.7508,TRUE,0.15,4,2,"Male","Asian","Not Hispanic or Latino","English","Lab","PA","2-8-8-2",20.678987,20.678987,2,2
"535",2,"Nov-2014",1,14,"linear",0,0.2,"R",1.1508,TRUE,0.2,2,8,"Male","Asian","Not Hispanic or Latino","English","Lab","PA","2-8-8-2",20.678987,20.678987,2,8
"536",2,"Nov-2014",1,14,"linear",0,0.2,"R",0.9023,TRUE,0.2,3,8,"Male","Asian","Not Hispanic or Latino","English","Lab","PA","2-8-8-2",20.678987,20.678987,2,8
"537",2,"Nov-2014",1,15,"radial",0,0.1,"L",NA,FALSE,0.1,1,2,"Male","Asian","Not Hispanic or Latino","English","Lab","PA","2-8-8-2",20.678987,20.678987,2,2
"538",2,"Nov-2014",1,15,"radial",0,0.1,"R",1.2405,TRUE,0.1,4,2,"Male","Asian","Not Hispanic or Latino","English","Lab","PA","2-8-8-2",20.678987,20.678987,2,2
"539",2,"Nov-2014",1,15,"linear",0.1,0,"R",2.0367,FALSE,0.1,2,8,"Male","Asian","Not Hispanic or Latino","English","Lab","PA","2-8-8-2",20.678987,20.678987,2,8
"540",2,"Nov-2014",1,15,"linear",0.1,0,"L",1.0009,TRUE,0.1,3,8,"Male","Asian","Not Hispanic or Latino","English","Lab","PA","2-8-8-2",20.678987,20.678987,2,8
"541",2,"Nov-2014",1,16,"radial",0.1,0,"R",4.0536,FALSE,0.1,1,2,"Male","Asian","Not Hispanic or Latino","English","Lab","PA","2-8-8-2",20.678987,20.678987,2,2
"542",2,"Nov-2014",1,16,"radial",0.1,0,"L",2.3854,TRUE,0.1,4,2,"Male","Asian","Not Hispanic or Latino","English","Lab","PA","2-8-8-2",20.678987,20.678987,2,2
"543",2,"Nov-2014",1,16,"linear",0,0.05,"R",2.2856,TRUE,0.05,2,8,"Male","Asian","Not Hispanic or Latino","English","Lab","PA","2-8-8-2",20.678987,20.678987,2,8
"544",2,"Nov-2014",1,16,"linear",0,0.05,"R",1.2749,TRUE,0.05,3,8,"Male","Asian","Not Hispanic or Latino","English","Lab","PA","2-8-8-2",20.678987,20.678987,2,8
"545",2,"Nov-2014",2,1,"radial",0.2,0,"L",1.4516,TRUE,0.2,1,2,"Male","Asian","Not Hispanic or Latino","English","Lab","PA","2-8-8-2",20.678987,20.678987,2,2
"546",2,"Nov-2014",2,1,"radial",0.2,0,"L",0.66737,TRUE,0.2,4,2,"Male","Asian","Not Hispanic or Latino","English","Lab","PA","2-8-8-2",20.678987,20.678987,2,2
"547",2,"Nov-2014",2,1,"linear",0.2,0,"L",0.81758,TRUE,0.2,2,8,"Male","Asian","Not Hispanic or Latino","English","Lab","PA","2-8-8-2",20.678987,20.678987,2,8
"548",2,"Nov-2014",2,1,"linear",0.2,0,"L",0.61732,TRUE,0.2,3,8,"Male","Asian","Not Hispanic or Latino","English","Lab","PA","2-8-8-2",20.678987,20.678987,2,8
"549",2,"Nov-2014",2,2,"linear",0.1,0,"L",3.1531,TRUE,0.1,1,2,"Male","Asian","Not Hispanic or Latino","English","Lab","PA","2-8-8-2",20.678987,20.678987,2,2
"550",2,"Nov-2014",2,2,"linear",0.1,0,"R",2.5689,FALSE,0.1,4,2,"Male","Asian","Not Hispanic or Latino","English","Lab","PA","2-8-8-2",20.678987,20.678987,2,2
"551",2,"Nov-2014",2,2,"radial",0.15,0,"L",1.2176,TRUE,0.15,2,8,"Male","Asian","Not Hispanic or Latino","English","Lab","PA","2-8-8-2",20.678987,20.678987,2,8
"552",2,"Nov-2014",2,2,"radial",0.15,0,"L",1.1885,TRUE,0.15,3,8,"Male","Asian","Not Hispanic or Latino","English","Lab","PA","2-8-8-2",20.678987,20.678987,2,8
"553",2,"Nov-2014",2,3,"linear",0.2,0,"L",2.4855,TRUE,0.2,1,2,"Male","Asian","Not Hispanic or Latino","English","Lab","PA","2-8-8-2",20.678987,20.678987,2,2
"554",2,"Nov-2014",2,3,"linear",0.2,0,"L",0.85096,TRUE,0.2,4,2,"Male","Asian","Not Hispanic or Latino","English","Lab","PA","2-8-8-2",20.678987,20.678987,2,2
"555",2,"Nov-2014",2,3,"linear",0,0.1,"R",3.5364,TRUE,0.1,2,8,"Male","Asian","Not Hispanic or Latino","English","Lab","PA","2-8-8-2",20.678987,20.678987,2,8
"556",2,"Nov-2014",2,3,"linear",0,0.1,"R",1.418,TRUE,0.1,3,8,"Male","Asian","Not Hispanic or Latino","English","Lab","PA","2-8-8-2",20.678987,20.678987,2,8
"557",2,"Nov-2014",2,4,"linear",0.05,0,"R",4.5871,FALSE,0.05,1,2,"Male","Asian","Not Hispanic or Latino","English","Lab","PA","2-8-8-2",20.678987,20.678987,2,2
"558",2,"Nov-2014",2,4,"linear",0.05,0,"R",2.2853,FALSE,0.05,4,2,"Male","Asian","Not Hispanic or Latino","English","Lab","PA","2-8-8-2",20.678987,20.678987,2,2
"559",2,"Nov-2014",2,4,"radial",0.1,0,"L",1.5348,TRUE,0.1,2,8,"Male","Asian","Not Hispanic or Latino","English","Lab","PA","2-8-8-2",20.678987,20.678987,2,8
"560",2,"Nov-2014",2,4,"radial",0.1,0,"L",1.1011,TRUE,0.1,3,8,"Male","Asian","Not Hispanic or Latino","English","Lab","PA","2-8-8-2",20.678987,20.678987,2,8
"561",2,"Nov-2014",2,5,"linear",0,0.2,"R",3.3532,TRUE,0.2,1,2,"Male","Asian","Not Hispanic or Latino","English","Lab","PA","2-8-8-2",20.678987,20.678987,2,2
"562",2,"Nov-2014",2,5,"linear",0,0.2,"R",0.78394,TRUE,0.2,4,2,"Male","Asian","Not Hispanic or Latino","English","Lab","PA","2-8-8-2",20.678987,20.678987,2,2
"563",2,"Nov-2014",2,5,"radial",0,0.15,"L",1.106,FALSE,0.15,2,8,"Male","Asian","Not Hispanic or Latino","English","Lab","PA","2-8-8-2",20.678987,20.678987,2,8
"564",2,"Nov-2014",2,5,"radial",0,0.15,"L",0.9194,FALSE,0.15,3,8,"Male","Asian","Not Hispanic or Latino","English","Lab","PA","2-8-8-2",20.678987,20.678987,2,8
"565",2,"Nov-2014",2,6,"radial",0,0.05,"L",3.4028,FALSE,0.05,1,2,"Male","Asian","Not Hispanic or Latino","English","Lab","PA","2-8-8-2",20.678987,20.678987,2,2
"566",2,"Nov-2014",2,6,"radial",0,0.05,"R",1.2612,TRUE,0.05,4,2,"Male","Asian","Not Hispanic or Latino","English","Lab","PA","2-8-8-2",20.678987,20.678987,2,2
"567",2,"Nov-2014",2,6,"linear",0.15,0,"L",1.1896,TRUE,0.15,2,8,"Male","Asian","Not Hispanic or Latino","English","Lab","PA","2-8-8-2",20.678987,20.678987,2,8
"568",2,"Nov-2014",2,6,"linear",0.15,0,"L",0.9675,TRUE,0.15,3,8,"Male","Asian","Not Hispanic or Latino","English","Lab","PA","2-8-8-2",20.678987,20.678987,2,8
"569",2,"Nov-2014",2,7,"radial",0,0.2,"R",2.2358,TRUE,0.2,1,2,"Male","Asian","Not Hispanic or Latino","English","Lab","PA","2-8-8-2",20.678987,20.678987,2,2
"570",2,"Nov-2014",2,7,"radial",0,0.2,"R",1.2412,TRUE,0.2,4,2,"Male","Asian","Not Hispanic or Latino","English","Lab","PA","2-8-8-2",20.678987,20.678987,2,2
"571",2,"Nov-2014",2,7,"radial",0,0.2,"R",0.99233,TRUE,0.2,2,8,"Male","Asian","Not Hispanic or Latino","English","Lab","PA","2-8-8-2",20.678987,20.678987,2,8
"572",2,"Nov-2014",2,7,"radial",0,0.2,"R",1.0342,TRUE,0.2,3,8,"Male","Asian","Not Hispanic or Latino","English","Lab","PA","2-8-8-2",20.678987,20.678987,2,8
"573",2,"Nov-2014",2,8,"linear",0,0.15,"R",2.3858,TRUE,0.15,1,2,"Male","Asian","Not Hispanic or Latino","English","Lab","PA","2-8-8-2",20.678987,20.678987,2,2
"574",2,"Nov-2014",2,8,"linear",0,0.15,"R",0.81743,TRUE,0.15,4,2,"Male","Asian","Not Hispanic or Latino","English","Lab","PA","2-8-8-2",20.678987,20.678987,2,2
"575",2,"Nov-2014",2,8,"radial",0.05,0,"R",1.4016,FALSE,0.05,2,8,"Male","Asian","Not Hispanic or Latino","English","Lab","PA","2-8-8-2",20.678987,20.678987,2,8
"576",2,"Nov-2014",2,8,"radial",0.05,0,"L",1.1752,TRUE,0.05,3,8,"Male","Asian","Not Hispanic or Latino","English","Lab","PA","2-8-8-2",20.678987,20.678987,2,8
"577",2,"Nov-2014",2,9,"linear",0,0.1,"R",3.2532,TRUE,0.1,1,2,"Male","Asian","Not Hispanic or Latino","English","Lab","PA","2-8-8-2",20.678987,20.678987,2,2
"578",2,"Nov-2014",2,9,"linear",0,0.1,"R",1.0198,TRUE,0.1,4,2,"Male","Asian","Not Hispanic or Latino","English","Lab","PA","2-8-8-2",20.678987,20.678987,2,2
"579",2,"Nov-2014",2,9,"radial",0,0.1,"R",1.5179,TRUE,0.1,2,8,"Male","Asian","Not Hispanic or Latino","English","Lab","PA","2-8-8-2",20.678987,20.678987,2,8
"580",2,"Nov-2014",2,9,"radial",0,0.1,"R",1.1074,TRUE,0.1,3,8,"Male","Asian","Not Hispanic or Latino","English","Lab","PA","2-8-8-2",20.678987,20.678987,2,8
"581",2,"Nov-2014",2,10,"radial",0,0.15,"R",1.418,TRUE,0.15,1,2,"Male","Asian","Not Hispanic or Latino","English","Lab","PA","2-8-8-2",20.678987,20.678987,2,2
"582",2,"Nov-2014",2,10,"radial",0,0.15,"R",1.0357,TRUE,0.15,4,2,"Male","Asian","Not Hispanic or Latino","English","Lab","PA","2-8-8-2",20.678987,20.678987,2,2
"583",2,"Nov-2014",2,10,"linear",0.05,0,"L",2.5523,TRUE,0.05,2,8,"Male","Asian","Not Hispanic or Latino","English","Lab","PA","2-8-8-2",20.678987,20.678987,2,8
"584",2,"Nov-2014",2,10,"linear",0.05,0,"R",1.2067,FALSE,0.05,3,8,"Male","Asian","Not Hispanic or Latino","English","Lab","PA","2-8-8-2",20.678987,20.678987,2,8
"585",2,"Nov-2014",2,11,"radial",0.05,0,"L",2.453,TRUE,0.05,1,2,"Male","Asian","Not Hispanic or Latino","English","Lab","PA","2-8-8-2",20.678987,20.678987,2,2
"586",2,"Nov-2014",2,11,"radial",0.05,0,"L",3.3531,TRUE,0.05,4,2,"Male","Asian","Not Hispanic or Latino","English","Lab","PA","2-8-8-2",20.678987,20.678987,2,2
"587",2,"Nov-2014",2,11,"radial",0,0.05,"L",1.1342,FALSE,0.05,2,8,"Male","Asian","Not Hispanic or Latino","English","Lab","PA","2-8-8-2",20.678987,20.678987,2,8
"588",2,"Nov-2014",2,11,"radial",0,0.05,"L",0.53387,FALSE,0.05,3,8,"Male","Asian","Not Hispanic or Latino","English","Lab","PA","2-8-8-2",20.678987,20.678987,2,8
"589",2,"Nov-2014",2,12,"radial",0.15,0,"L",1.6347,TRUE,0.15,1,2,"Male","Asian","Not Hispanic or Latino","English","Lab","PA","2-8-8-2",20.678987,20.678987,2,2
"590",2,"Nov-2014",2,12,"radial",0.15,0,"L",0.71731,TRUE,0.15,4,2,"Male","Asian","Not Hispanic or Latino","English","Lab","PA","2-8-8-2",20.678987,20.678987,2,2
"591",2,"Nov-2014",2,12,"linear",0,0.15,"R",2.5524,TRUE,0.15,2,8,"Male","Asian","Not Hispanic or Latino","English","Lab","PA","2-8-8-2",20.678987,20.678987,2,8
"592",2,"Nov-2014",2,12,"linear",0,0.15,"R",2.2356,TRUE,0.15,3,8,"Male","Asian","Not Hispanic or Latino","English","Lab","PA","2-8-8-2",20.678987,20.678987,2,8
"593",2,"Nov-2014",2,13,"linear",0,0.05,"R",3.6034,TRUE,0.05,1,2,"Male","Asian","Not Hispanic or Latino","English","Lab","PA","2-8-8-2",20.678987,20.678987,2,2
"594",2,"Nov-2014",2,13,"linear",0,0.05,"R",1.0573,TRUE,0.05,4,2,"Male","Asian","Not Hispanic or Latino","English","Lab","PA","2-8-8-2",20.678987,20.678987,2,2
"595",2,"Nov-2014",2,13,"linear",0,0.2,"R",0.85675,TRUE,0.2,2,8,"Male","Asian","Not Hispanic or Latino","English","Lab","PA","2-8-8-2",20.678987,20.678987,2,8
"596",2,"Nov-2014",2,13,"linear",0,0.2,"R",0.91764,TRUE,0.2,3,8,"Male","Asian","Not Hispanic or Latino","English","Lab","PA","2-8-8-2",20.678987,20.678987,2,8
"597",2,"Nov-2014",2,14,"radial",0,0.1,"R",2.0425,TRUE,0.1,1,2,"Male","Asian","Not Hispanic or Latino","English","Lab","PA","2-8-8-2",20.678987,20.678987,2,2
"598",2,"Nov-2014",2,14,"radial",0,0.1,"R",1.2344,TRUE,0.1,4,2,"Male","Asian","Not Hispanic or Latino","English","Lab","PA","2-8-8-2",20.678987,20.678987,2,2
"599",2,"Nov-2014",2,14,"linear",0.1,0,"R",2.5519,FALSE,0.1,2,8,"Male","Asian","Not Hispanic or Latino","English","Lab","PA","2-8-8-2",20.678987,20.678987,2,8
"600",2,"Nov-2014",2,14,"linear",0.1,0,"L",0.7675,TRUE,0.1,3,8,"Male","Asian","Not Hispanic or Latino","English","Lab","PA","2-8-8-2",20.678987,20.678987,2,8
"601",2,"Nov-2014",2,15,"radial",0.1,0,"L",1.8513,TRUE,0.1,1,2,"Male","Asian","Not Hispanic or Latino","English","Lab","PA","2-8-8-2",20.678987,20.678987,2,2
"602",2,"Nov-2014",2,15,"radial",0.1,0,"L",2.4188,TRUE,0.1,4,2,"Male","Asian","Not Hispanic or Latino","English","Lab","PA","2-8-8-2",20.678987,20.678987,2,2
"603",2,"Nov-2014",2,15,"radial",0.2,0,"L",0.81756,TRUE,0.2,2,8,"Male","Asian","Not Hispanic or Latino","English","Lab","PA","2-8-8-2",20.678987,20.678987,2,8
"604",2,"Nov-2014",2,15,"radial",0.2,0,"L",0.73411,TRUE,0.2,3,8,"Male","Asian","Not Hispanic or Latino","English","Lab","PA","2-8-8-2",20.678987,20.678987,2,8
"605",2,"Nov-2014",2,16,"linear",0.15,0,"L",2.5737,TRUE,0.15,1,2,"Male","Asian","Not Hispanic or Latino","English","Lab","PA","2-8-8-2",20.678987,20.678987,2,2
"606",2,"Nov-2014",2,16,"linear",0.15,0,"L",0.7843,TRUE,0.15,4,2,"Male","Asian","Not Hispanic or Latino","English","Lab","PA","2-8-8-2",20.678987,20.678987,2,2
"607",2,"Nov-2014",2,16,"linear",0,0.05,"R",1.4846,TRUE,0.05,2,8,"Male","Asian","Not Hispanic or Latino","English","Lab","PA","2-8-8-2",20.678987,20.678987,2,8
"608",2,"Nov-2014",2,16,"linear",0,0.05,"R",2.6188,TRUE,0.05,3,8,"Male","Asian","Not Hispanic or Latino","English","Lab","PA","2-8-8-2",20.678987,20.678987,2,8
"609",2,"Nov-2014",3,1,"radial",0.2,0,"L",0.9842,TRUE,0.2,1,2,"Male","Asian","Not Hispanic or Latino","English","Lab","PA","2-8-8-2",20.678987,20.678987,2,2
"610",2,"Nov-2014",3,1,"radial",0.2,0,"L",0.56719,TRUE,0.2,4,2,"Male","Asian","Not Hispanic or Latino","English","Lab","PA","2-8-8-2",20.678987,20.678987,2,2
"611",2,"Nov-2014",3,1,"radial",0.15,0,"L",1.0252,TRUE,0.15,2,8,"Male","Asian","Not Hispanic or Latino","English","Lab","PA","2-8-8-2",20.678987,20.678987,2,8
"612",2,"Nov-2014",3,1,"radial",0.15,0,"L",1.0547,TRUE,0.15,3,8,"Male","Asian","Not Hispanic or Latino","English","Lab","PA","2-8-8-2",20.678987,20.678987,2,8
"613",2,"Nov-2014",3,2,"radial",0,0.05,"R",3.1694,TRUE,0.05,1,2,"Male","Asian","Not Hispanic or Latino","English","Lab","PA","2-8-8-2",20.678987,20.678987,2,2
"614",2,"Nov-2014",3,2,"radial",0,0.05,"L",1.7683,FALSE,0.05,4,2,"Male","Asian","Not Hispanic or Latino","English","Lab","PA","2-8-8-2",20.678987,20.678987,2,2
"615",2,"Nov-2014",3,2,"radial",0.1,0,"R",1.3848,FALSE,0.1,2,8,"Male","Asian","Not Hispanic or Latino","English","Lab","PA","2-8-8-2",20.678987,20.678987,2,8
"616",2,"Nov-2014",3,2,"radial",0.1,0,"L",1.0534,TRUE,0.1,3,8,"Male","Asian","Not Hispanic or Latino","English","Lab","PA","2-8-8-2",20.678987,20.678987,2,8
"617",2,"Nov-2014",3,3,"radial",0,0.2,"R",1.1342,TRUE,0.2,1,2,"Male","Asian","Not Hispanic or Latino","English","Lab","PA","2-8-8-2",20.678987,20.678987,2,2
"618",2,"Nov-2014",3,3,"radial",0,0.2,"R",0.6511,TRUE,0.2,4,2,"Male","Asian","Not Hispanic or Latino","English","Lab","PA","2-8-8-2",20.678987,20.678987,2,2
"619",2,"Nov-2014",3,3,"radial",0,0.15,"R",1.4848,TRUE,0.15,2,8,"Male","Asian","Not Hispanic or Latino","English","Lab","PA","2-8-8-2",20.678987,20.678987,2,8
"620",2,"Nov-2014",3,3,"radial",0,0.15,"R",2.4858,TRUE,0.15,3,8,"Male","Asian","Not Hispanic or Latino","English","Lab","PA","2-8-8-2",20.678987,20.678987,2,8
"621",2,"Nov-2014",3,4,"radial",0,0.15,"R",1.1344,TRUE,0.15,1,2,"Male","Asian","Not Hispanic or Latino","English","Lab","PA","2-8-8-2",20.678987,20.678987,2,2
