ParticipantID,SessionDate,Block,Trial,PatternType,LeftCoh,RightCoh,Response,RT,Acc,Coh,Run,DegPSec,Gender,Race,Ethnicity,Language,Setting,State,SpeedOrder,AgeYears,Age,SubID,Speed
1,Oct-14,1,1,linear,0.1,0,L,3.0539,TRUE,0.1,1,2,Male,White,Not Hispanic or Latino,English,Lab,PA,8-Feb,21.86447639,21.86447639,1,2
1,Oct-14,1,1,radial,0.15,0,L,3.402,TRUE,0.15,2,8,Male,White,Not Hispanic or Latino,English,Lab,PA,8-Feb,21.86447639,21.86447639,1,8
1,Oct-14,1,2,linear,0.2,0,L,0.85076,TRUE,0.2,1,2,Male,White,Not Hispanic or Latino,English,Lab,PA,8-Feb,21.86447639,21.86447639,1,2
1,Oct-14,1,2,radial,0.1,0,R,1.5851,FALSE,0.1,2,8,Male,White,Not Hispanic or Latino,English,Lab,PA,8-Feb,21.86447639,21.86447639,1,8
1,Oct-14,1,3,radial,0.2,0,L,1.0013,TRUE,0.2,1,2,Male,White,Not Hispanic or Latino,English,Lab,PA,8-Feb,21.86447639,21.86447639,1,2
1,Oct-14,1,3,radial,0,0.15,R,2.286,TRUE,0.15,2,8,Male,White,Not Hispanic or Latino,English,Lab,PA,8-Feb,21.86447639,21.86447639,1,8
1,Oct-14,1,4,linear,0.05,0,L,1.1344,TRUE,0.05,1,2,Male,White,Not Hispanic or Latino,English,Lab,PA,8-Feb,21.86447639,21.86447639,1,2
1,Oct-14,1,4,radial,0,0.2,L,2.8856,FALSE,0.2,2,8,Male,White,Not Hispanic or Latino,English,Lab,PA,8-Feb,21.86447639,21.86447639,1,8
1,Oct-14,1,5,linear,0,0.2,R,1.0344,TRUE,0.2,1,2,Male,White,Not Hispanic or Latino,English,Lab,PA,8-Feb,21.86447639,21.86447639,1,2
1,Oct-14,1,5,radial,0.05,0,R,2.8529,FALSE,0.05,2,8,Male,White,Not Hispanic or Latino,English,Lab,PA,8-Feb,21.86447639,21.86447639,1,8
1,Oct-14,1,6,radial,0,0.05,L,1.1844,FALSE,0.05,1,2,Male,White,Not Hispanic or Latino,English,Lab,PA,8-Feb,21.86447639,21.86447639,1,2
1,Oct-14,1,6,linear,0.2,0,L,1.0343,TRUE,0.2,2,8,Male,White,Not Hispanic or Latino,English,Lab,PA,8-Feb,21.86447639,21.86447639,1,8
1,Oct-14,1,7,radial,0,0.2,R,1.0174,TRUE,0.2,1,2,Male,White,Not Hispanic or Latino,English,Lab,PA,8-Feb,21.86447639,21.86447639,1,2
1,Oct-14,1,7,linear,0,0.1,L,2.4021,FALSE,0.1,2,8,Male,White,Not Hispanic or Latino,English,Lab,PA,8-Feb,21.86447639,21.86447639,1,8
1,Oct-14,1,8,linear,0,0.15,L,1.0178,FALSE,0.15,1,2,Male,White,Not Hispanic or Latino,English,Lab,PA,8-Feb,21.86447639,21.86447639,1,2
1,Oct-14,1,8,linear,0.15,0,L,1.0679,TRUE,0.15,2,8,Male,White,Not Hispanic or Latino,English,Lab,PA,8-Feb,21.86447639,21.86447639,1,8
1,Oct-14,1,9,radial,0,0.15,L,1.402,FALSE,0.15,1,2,Male,White,Not Hispanic or Latino,English,Lab,PA,8-Feb,21.86447639,21.86447639,1,2
1,Oct-14,1,9,radial,0,0.1,R,3.7867,TRUE,0.1,2,8,Male,White,Not Hispanic or Latino,English,Lab,PA,8-Feb,21.86447639,21.86447639,1,8
1,Oct-14,1,10,linear,0,0.1,L,1.939,FALSE,0.1,1,2,Male,White,Not Hispanic or Latino,English,Lab,PA,8-Feb,21.86447639,21.86447639,1,2
1,Oct-14,1,10,linear,0.05,0,L,2.769,TRUE,0.05,2,8,Male,White,Not Hispanic or Latino,English,Lab,PA,8-Feb,21.86447639,21.86447639,1,8
1,Oct-14,1,11,radial,0.05,0,R,2.3854,FALSE,0.05,1,2,Male,White,Not Hispanic or Latino,English,Lab,PA,8-Feb,21.86447639,21.86447639,1,2
1,Oct-14,1,11,radial,0,0.05,R,2.586,TRUE,0.05,2,8,Male,White,Not Hispanic or Latino,English,Lab,PA,8-Feb,21.86447639,21.86447639,1,8
1,Oct-14,1,12,linear,0,0.05,L,2.1412,FALSE,0.05,1,2,Male,White,Not Hispanic or Latino,English,Lab,PA,8-Feb,21.86447639,21.86447639,1,2
1,Oct-14,1,12,radial,0.2,0,L,0.9842,TRUE,0.2,2,8,Male,White,Not Hispanic or Latino,English,Lab,PA,8-Feb,21.86447639,21.86447639,1,8
1,Oct-14,1,13,radial,0.15,0,L,1.1919,TRUE,0.15,1,2,Male,White,Not Hispanic or Latino,English,Lab,PA,8-Feb,21.86447639,21.86447639,1,2
1,Oct-14,1,13,linear,0,0.15,L,1.2845,FALSE,0.15,2,8,Male,White,Not Hispanic or Latino,English,Lab,PA,8-Feb,21.86447639,21.86447639,1,8
1,Oct-14,1,14,linear,0.15,0,L,0.88476,TRUE,0.15,1,2,Male,White,Not Hispanic or Latino,English,Lab,PA,8-Feb,21.86447639,21.86447639,1,2
1,Oct-14,1,14,linear,0,0.2,R,0.90121,TRUE,0.2,2,8,Male,White,Not Hispanic or Latino,English,Lab,PA,8-Feb,21.86447639,21.86447639,1,8
1,Oct-14,1,15,radial,0,0.1,L,2.0746,FALSE,0.1,1,2,Male,White,Not Hispanic or Latino,English,Lab,PA,8-Feb,21.86447639,21.86447639,1,2
1,Oct-14,1,15,linear,0.1,0,R,3.7207,FALSE,0.1,2,8,Male,White,Not Hispanic or Latino,English,Lab,PA,8-Feb,21.86447639,21.86447639,1,8
1,Oct-14,1,16,radial,0.1,0,R,2.1296,FALSE,0.1,1,2,Male,White,Not Hispanic or Latino,English,Lab,PA,8-Feb,21.86447639,21.86447639,1,2
1,Oct-14,1,16,linear,0,0.05,R,3.4867,TRUE,0.05,2,8,Male,White,Not Hispanic or Latino,English,Lab,PA,8-Feb,21.86447639,21.86447639,1,8
1,Oct-14,2,1,radial,0.2,0,L,1.2012,TRUE,0.2,1,2,Male,White,Not Hispanic or Latino,English,Lab,PA,8-Feb,21.86447639,21.86447639,1,2
1,Oct-14,2,1,linear,0.2,0,L,0.95093,TRUE,0.2,2,8,Male,White,Not Hispanic or Latino,English,Lab,PA,8-Feb,21.86447639,21.86447639,1,8
1,Oct-14,2,2,linear,0.1,0,L,1.3216,TRUE,0.1,1,2,Male,White,Not Hispanic or Latino,English,Lab,PA,8-Feb,21.86447639,21.86447639,1,2
1,Oct-14,2,2,radial,0.15,0,L,1.2012,TRUE,0.15,2,8,Male,White,Not Hispanic or Latino,English,Lab,PA,8-Feb,21.86447639,21.86447639,1,8
1,Oct-14,2,3,linear,0.2,0,L,0.86772,TRUE,0.2,1,2,Male,White,Not Hispanic or Latino,English,Lab,PA,8-Feb,21.86447639,21.86447639,1,2
1,Oct-14,2,3,linear,0,0.1,L,NA,FALSE,0.1,2,8,Male,White,Not Hispanic or Latino,English,Lab,PA,8-Feb,21.86447639,21.86447639,1,8
1,Oct-14,2,4,linear,0.05,0,R,NA,FALSE,0.05,1,2,Male,White,Not Hispanic or Latino,English,Lab,PA,8-Feb,21.86447639,21.86447639,1,2
1,Oct-14,2,4,radial,0.1,0,L,1.3445,TRUE,0.1,2,8,Male,White,Not Hispanic or Latino,English,Lab,PA,8-Feb,21.86447639,21.86447639,1,8
1,Oct-14,2,5,linear,0,0.2,R,0.90089,TRUE,0.2,1,2,Male,White,Not Hispanic or Latino,English,Lab,PA,8-Feb,21.86447639,21.86447639,1,2
1,Oct-14,2,5,radial,0,0.15,R,1.4514,TRUE,0.15,2,8,Male,White,Not Hispanic or Latino,English,Lab,PA,8-Feb,21.86447639,21.86447639,1,8
1,Oct-14,2,6,radial,0,0.05,L,1.4181,FALSE,0.05,1,2,Male,White,Not Hispanic or Latino,English,Lab,PA,8-Feb,21.86447639,21.86447639,1,2
1,Oct-14,2,6,linear,0.15,0,L,1.001,TRUE,0.15,2,8,Male,White,Not Hispanic or Latino,English,Lab,PA,8-Feb,21.86447639,21.86447639,1,8
1,Oct-14,2,7,radial,0,0.2,R,0.95096,TRUE,0.2,1,2,Male,White,Not Hispanic or Latino,English,Lab,PA,8-Feb,21.86447639,21.86447639,1,2
1,Oct-14,2,7,radial,0,0.2,R,1.1009,TRUE,0.2,2,8,Male,White,Not Hispanic or Latino,English,Lab,PA,8-Feb,21.86447639,21.86447639,1,8
1,Oct-14,2,8,linear,0,0.15,R,1.835,TRUE,0.15,1,2,Male,White,Not Hispanic or Latino,English,Lab,PA,8-Feb,21.86447639,21.86447639,1,2
1,Oct-14,2,8,radial,0.05,0,R,1.3345,FALSE,0.05,2,8,Male,White,Not Hispanic or Latino,English,Lab,PA,8-Feb,21.86447639,21.86447639,1,8
1,Oct-14,2,9,linear,0,0.1,L,1.7683,FALSE,0.1,1,2,Male,White,Not Hispanic or Latino,English,Lab,PA,8-Feb,21.86447639,21.86447639,1,2
1,Oct-14,2,9,radial,0,0.1,R,2.1871,TRUE,0.1,2,8,Male,White,Not Hispanic or Latino,English,Lab,PA,8-Feb,21.86447639,21.86447639,1,8
1,Oct-14,2,10,radial,0,0.15,R,0.93426,TRUE,0.15,1,2,Male,White,Not Hispanic or Latino,English,Lab,PA,8-Feb,21.86447639,21.86447639,1,2
1,Oct-14,2,10,linear,0.05,0,L,1.2845,TRUE,0.05,2,8,Male,White,Not Hispanic or Latino,English,Lab,PA,8-Feb,21.86447639,21.86447639,1,8
1,Oct-14,2,11,radial,0.05,0,R,2.2852,FALSE,0.05,1,2,Male,White,Not Hispanic or Latino,English,Lab,PA,8-Feb,21.86447639,21.86447639,1,2
1,Oct-14,2,11,radial,0,0.05,L,2.7857,FALSE,0.05,2,8,Male,White,Not Hispanic or Latino,English,Lab,PA,8-Feb,21.86447639,21.86447639,1,8
1,Oct-14,2,12,radial,0.15,0,L,0.96759,TRUE,0.15,1,2,Male,White,Not Hispanic or Latino,English,Lab,PA,8-Feb,21.86447639,21.86447639,1,2
1,Oct-14,2,12,linear,0,0.15,R,1.5678,TRUE,0.15,2,8,Male,White,Not Hispanic or Latino,English,Lab,PA,8-Feb,21.86447639,21.86447639,1,8
1,Oct-14,2,13,linear,0,0.05,R,3.1377,TRUE,0.05,1,2,Male,White,Not Hispanic or Latino,English,Lab,PA,8-Feb,21.86447639,21.86447639,1,2
1,Oct-14,2,13,linear,0,0.2,R,1.1344,TRUE,0.2,2,8,Male,White,Not Hispanic or Latino,English,Lab,PA,8-Feb,21.86447639,21.86447639,1,8
1,Oct-14,2,14,radial,0,0.1,L,1.8408,FALSE,0.1,1,2,Male,White,Not Hispanic or Latino,English,Lab,PA,8-Feb,21.86447639,21.86447639,1,2
1,Oct-14,2,14,linear,0.1,0,L,1.835,TRUE,0.1,2,8,Male,White,Not Hispanic or Latino,English,Lab,PA,8-Feb,21.86447639,21.86447639,1,8
1,Oct-14,2,15,radial,0.1,0,L,2.869,TRUE,0.1,1,2,Male,White,Not Hispanic or Latino,English,Lab,PA,8-Feb,21.86447639,21.86447639,1,2
1,Oct-14,2,15,radial,0.2,0,L,0.90094,TRUE,0.2,2,8,Male,White,Not Hispanic or Latino,English,Lab,PA,8-Feb,21.86447639,21.86447639,1,8
1,Oct-14,2,16,linear,0.15,0,L,1.0873,TRUE,0.15,1,2,Male,White,Not Hispanic or Latino,English,Lab,PA,8-Feb,21.86447639,21.86447639,1,2
1,Oct-14,2,16,linear,0,0.05,R,NA,TRUE,0.05,2,8,Male,White,Not Hispanic or Latino,English,Lab,PA,8-Feb,21.86447639,21.86447639,1,8
1,Oct-14,3,1,radial,0.2,0,L,0.98428,TRUE,0.2,1,2,Male,White,Not Hispanic or Latino,English,Lab,PA,8-Feb,21.86447639,21.86447639,1,2
1,Oct-14,3,1,radial,0.15,0,L,1.8348,TRUE,0.15,2,8,Male,White,Not Hispanic or Latino,English,Lab,PA,8-Feb,21.86447639,21.86447639,1,8
1,Oct-14,3,2,radial,0,0.05,L,1.0511,FALSE,0.05,1,2,Male,White,Not Hispanic or Latino,English,Lab,PA,8-Feb,21.86447639,21.86447639,1,2
1,Oct-14,3,2,radial,0.1,0,L,2.1386,TRUE,0.1,2,8,Male,White,Not Hispanic or Latino,English,Lab,PA,8-Feb,21.86447639,21.86447639,1,8
1,Oct-14,3,3,radial,0,0.2,R,0.83418,TRUE,0.2,1,2,Male,White,Not Hispanic or Latino,English,Lab,PA,8-Feb,21.86447639,21.86447639,1,2
1,Oct-14,3,3,radial,0,0.15,R,1.001,TRUE,0.15,2,8,Male,White,Not Hispanic or Latino,English,Lab,PA,8-Feb,21.86447639,21.86447639,1,8
1,Oct-14,3,4,radial,0,0.15,R,1.7348,TRUE,0.15,1,2,Male,White,Not Hispanic or Latino,English,Lab,PA,8-Feb,21.86447639,21.86447639,1,2
1,Oct-14,3,4,radial,0,0.2,R,1.0356,TRUE,0.2,2,8,Male,White,Not Hispanic or Latino,English,Lab,PA,8-Feb,21.86447639,21.86447639,1,8
1,Oct-14,3,5,linear,0.1,0,R,2.686,FALSE,0.1,1,2,Male,White,Not Hispanic or Latino,English,Lab,PA,8-Feb,21.86447639,21.86447639,1,2
1,Oct-14,3,5,radial,0.05,0,R,1.568,FALSE,0.05,2,8,Male,White,Not Hispanic or Latino,English,Lab,PA,8-Feb,21.86447639,21.86447639,1,8
1,Oct-14,3,6,linear,0.2,0,L,1.151,TRUE,0.2,1,2,Male,White,Not Hispanic or Latino,English,Lab,PA,8-Feb,21.86447639,21.86447639,1,2
1,Oct-14,3,6,radial,0,0.1,R,1.3552,TRUE,0.1,2,8,Male,White,Not Hispanic or Latino,English,Lab,PA,8-Feb,21.86447639,21.86447639,1,8
1,Oct-14,3,7,linear,0.05,0,R,2.7523,FALSE,0.05,1,2,Male,White,Not Hispanic or Latino,English,Lab,PA,8-Feb,21.86447639,21.86447639,1,2
1,Oct-14,3,7,radial,0,0.05,L,2.5358,FALSE,0.05,2,8,Male,White,Not Hispanic or Latino,English,Lab,PA,8-Feb,21.86447639,21.86447639,1,8
1,Oct-14,3,8,linear,0,0.2,L,1.1344,FALSE,0.2,1,2,Male,White,Not Hispanic or Latino,English,Lab,PA,8-Feb,21.86447639,21.86447639,1,2
1,Oct-14,3,8,linear,0.2,0,L,0.88424,TRUE,0.2,2,8,Male,White,Not Hispanic or Latino,English,Lab,PA,8-Feb,21.86447639,21.86447639,1,8
1,Oct-14,3,9,linear,0,0.15,R,1.0009,TRUE,0.15,1,2,Male,White,Not Hispanic or Latino,English,Lab,PA,8-Feb,21.86447639,21.86447639,1,2
1,Oct-14,3,9,linear,0,0.1,L,0.98445,FALSE,0.1,2,8,Male,White,Not Hispanic or Latino,English,Lab,PA,8-Feb,21.86447639,21.86447639,1,8
1,Oct-14,3,10,radial,0.05,0,L,3.2201,TRUE,0.05,1,2,Male,White,Not Hispanic or Latino,English,Lab,PA,8-Feb,21.86447639,21.86447639,1,2
1,Oct-14,3,10,radial,0.2,0,L,1.1518,TRUE,0.2,2,8,Male,White,Not Hispanic or Latino,English,Lab,PA,8-Feb,21.86447639,21.86447639,1,8
1,Oct-14,3,11,radial,0.15,0,L,1.3346,TRUE,0.15,1,2,Male,White,Not Hispanic or Latino,English,Lab,PA,8-Feb,21.86447639,21.86447639,1,2
1,Oct-14,3,11,linear,0.15,0,L,1.301,TRUE,0.15,2,8,Male,White,Not Hispanic or Latino,English,Lab,PA,8-Feb,21.86447639,21.86447639,1,8
1,Oct-14,3,12,radial,0,0.1,R,2.8863,TRUE,0.1,1,2,Male,White,Not Hispanic or Latino,English,Lab,PA,8-Feb,21.86447639,21.86447639,1,2
1,Oct-14,3,12,linear,0.05,0,L,1.3919,TRUE,0.05,2,8,Male,White,Not Hispanic or Latino,English,Lab,PA,8-Feb,21.86447639,21.86447639,1,8
1,Oct-14,3,13,radial,0.1,0,L,1.4223,TRUE,0.1,1,2,Male,White,Not Hispanic or Latino,English,Lab,PA,8-Feb,21.86447639,21.86447639,1,2
1,Oct-14,3,13,linear,0,0.15,L,1.3847,FALSE,0.15,2,8,Male,White,Not Hispanic or Latino,English,Lab,PA,8-Feb,21.86447639,21.86447639,1,8
1,Oct-14,3,14,linear,0,0.1,R,2.0564,TRUE,0.1,1,2,Male,White,Not Hispanic or Latino,English,Lab,PA,8-Feb,21.86447639,21.86447639,1,2
1,Oct-14,3,14,linear,0,0.2,R,1.3513,TRUE,0.2,2,8,Male,White,Not Hispanic or Latino,English,Lab,PA,8-Feb,21.86447639,21.86447639,1,8
1,Oct-14,3,15,linear,0,0.05,R,1.5181,TRUE,0.05,1,2,Male,White,Not Hispanic or Latino,English,Lab,PA,8-Feb,21.86447639,21.86447639,1,2
1,Oct-14,3,15,linear,0.1,0,L,2.2855,TRUE,0.1,2,8,Male,White,Not Hispanic or Latino,English,Lab,PA,8-Feb,21.86447639,21.86447639,1,8
1,Oct-14,3,16,linear,0.15,0,L,1.3011,TRUE,0.15,1,2,Male,White,Not Hispanic or Latino,English,Lab,PA,8-Feb,21.86447639,21.86447639,1,2
1,Oct-14,3,16,linear,0,0.05,L,1.8349,FALSE,0.05,2,8,Male,White,Not Hispanic or Latino,English,Lab,PA,8-Feb,21.86447639,21.86447639,1,8
1,Oct-14,4,1,linear,0.1,0,L,1.2348,TRUE,0.1,1,2,Male,White,Not Hispanic or Latino,English,Lab,PA,8-Feb,21.86447639,21.86447639,1,2
1,Oct-14,4,1,radial,0.15,0,L,1.241,TRUE,0.15,2,8,Male,White,Not Hispanic or Latino,English,Lab,PA,8-Feb,21.86447639,21.86447639,1,8
1,Oct-14,4,2,radial,0.2,0,L,1.0177,TRUE,0.2,1,2,Male,White,Not Hispanic or Latino,English,Lab,PA,8-Feb,21.86447639,21.86447639,1,2
1,Oct-14,4,2,linear,0.2,0,L,0.96766,TRUE,0.2,2,8,Male,White,Not Hispanic or Latino,English,Lab,PA,8-Feb,21.86447639,21.86447639,1,8
1,Oct-14,4,3,radial,0,0.05,R,2.2352,TRUE,0.05,1,2,Male,White,Not Hispanic or Latino,English,Lab,PA,8-Feb,21.86447639,21.86447639,1,2
1,Oct-14,4,3,radial,0.1,0,L,1.8521,TRUE,0.1,2,8,Male,White,Not Hispanic or Latino,English,Lab,PA,8-Feb,21.86447639,21.86447639,1,8
1,Oct-14,4,4,linear,0.2,0,L,0.86751,TRUE,0.2,1,2,Male,White,Not Hispanic or Latino,English,Lab,PA,8-Feb,21.86447639,21.86447639,1,2
1,Oct-14,4,4,radial,0,0.15,R,2.4067,TRUE,0.15,2,8,Male,White,Not Hispanic or Latino,English,Lab,PA,8-Feb,21.86447639,21.86447639,1,8
1,Oct-14,4,5,linear,0.05,0,L,1.0846,TRUE,0.05,1,2,Male,White,Not Hispanic or Latino,English,Lab,PA,8-Feb,21.86447639,21.86447639,1,2
1,Oct-14,4,5,linear,0,0.1,R,3.4863,TRUE,0.1,2,8,Male,White,Not Hispanic or Latino,English,Lab,PA,8-Feb,21.86447639,21.86447639,1,8
1,Oct-14,4,6,radial,0,0.2,L,1.4241,FALSE,0.2,1,2,Male,White,Not Hispanic or Latino,English,Lab,PA,8-Feb,21.86447639,21.86447639,1,2
1,Oct-14,4,6,radial,0,0.2,R,0.86781,TRUE,0.2,2,8,Male,White,Not Hispanic or Latino,English,Lab,PA,8-Feb,21.86447639,21.86447639,1,8
1,Oct-14,4,7,radial,0,0.15,R,1.4854,TRUE,0.15,1,2,Male,White,Not Hispanic or Latino,English,Lab,PA,8-Feb,21.86447639,21.86447639,1,2
1,Oct-14,4,7,radial,0.05,0,L,1.2345,TRUE,0.05,2,8,Male,White,Not Hispanic or Latino,English,Lab,PA,8-Feb,21.86447639,21.86447639,1,8
1,Oct-14,4,8,linear,0,0.2,R,1.1346,TRUE,0.2,1,2,Male,White,Not Hispanic or Latino,English,Lab,PA,8-Feb,21.86447639,21.86447639,1,2
1,Oct-14,4,8,linear,0.15,0,L,0.9343,TRUE,0.15,2,8,Male,White,Not Hispanic or Latino,English,Lab,PA,8-Feb,21.86447639,21.86447639,1,8
1,Oct-14,4,9,linear,0,0.15,L,1.3343,FALSE,0.15,1,2,Male,White,Not Hispanic or Latino,English,Lab,PA,8-Feb,21.86447639,21.86447639,1,2
1,Oct-14,4,9,radial,0,0.1,L,1.1847,FALSE,0.1,2,8,Male,White,Not Hispanic or Latino,English,Lab,PA,8-Feb,21.86447639,21.86447639,1,8
1,Oct-14,4,10,linear,0,0.1,R,2.1351,TRUE,0.1,1,2,Male,White,Not Hispanic or Latino,English,Lab,PA,8-Feb,21.86447639,21.86447639,1,2
1,Oct-14,4,10,radial,0,0.05,L,2.7534,FALSE,0.05,2,8,Male,White,Not Hispanic or Latino,English,Lab,PA,8-Feb,21.86447639,21.86447639,1,8
1,Oct-14,4,11,radial,0.05,0,L,1.8351,TRUE,0.05,1,2,Male,White,Not Hispanic or Latino,English,Lab,PA,8-Feb,21.86447639,21.86447639,1,2
1,Oct-14,4,11,radial,0.2,0,L,1.0719,TRUE,0.2,2,8,Male,White,Not Hispanic or Latino,English,Lab,PA,8-Feb,21.86447639,21.86447639,1,8
1,Oct-14,4,12,linear,0,0.05,R,1.9683,TRUE,0.05,1,2,Male,White,Not Hispanic or Latino,English,Lab,PA,8-Feb,21.86447639,21.86447639,1,2
1,Oct-14,4,12,linear,0.05,0,L,1.1105,TRUE,0.05,2,8,Male,White,Not Hispanic or Latino,English,Lab,PA,8-Feb,21.86447639,21.86447639,1,8
1,Oct-14,4,13,radial,0.15,0,L,1.9038,TRUE,0.15,1,2,Male,White,Not Hispanic or Latino,English,Lab,PA,8-Feb,21.86447639,21.86447639,1,2
1,Oct-14,4,13,linear,0,0.15,L,1.368,FALSE,0.15,2,8,Male,White,Not Hispanic or Latino,English,Lab,PA,8-Feb,21.86447639,21.86447639,1,8
1,Oct-14,4,14,linear,0.15,0,L,2.155,TRUE,0.15,1,2,Male,White,Not Hispanic or Latino,English,Lab,PA,8-Feb,21.86447639,21.86447639,1,2
1,Oct-14,4,14,linear,0,0.2,R,1.2012,TRUE,0.2,2,8,Male,White,Not Hispanic or Latino,English,Lab,PA,8-Feb,21.86447639,21.86447639,1,8
1,Oct-14,4,15,radial,0,0.1,R,1.7182,TRUE,0.1,1,2,Male,White,Not Hispanic or Latino,English,Lab,PA,8-Feb,21.86447639,21.86447639,1,2
1,Oct-14,4,15,linear,0.1,0,L,1.2253,TRUE,0.1,2,8,Male,White,Not Hispanic or Latino,English,Lab,PA,8-Feb,21.86447639,21.86447639,1,8
1,Oct-14,4,16,radial,0.1,0,R,2.7358,FALSE,0.1,1,2,Male,White,Not Hispanic or Latino,English,Lab,PA,8-Feb,21.86447639,21.86447639,1,2
1,Oct-14,4,16,linear,0,0.05,R,1.529,TRUE,0.05,2,8,Male,White,Not Hispanic or Latino,English,Lab,PA,8-Feb,21.86447639,21.86447639,1,8
1,Oct-14,5,1,radial,0.2,0,L,0.95111,TRUE,0.2,1,2,Male,White,Not Hispanic or Latino,English,Lab,PA,8-Feb,21.86447639,21.86447639,1,2
1,Oct-14,5,1,linear,0.2,0,L,0.83767,TRUE,0.2,2,8,Male,White,Not Hispanic or Latino,English,Lab,PA,8-Feb,21.86447639,21.86447639,1,8
1,Oct-14,5,2,linear,0.1,0,L,2.052,TRUE,0.1,1,2,Male,White,Not Hispanic or Latino,English,Lab,PA,8-Feb,21.86447639,21.86447639,1,2
1,Oct-14,5,2,radial,0.15,0,L,1.0844,TRUE,0.15,2,8,Male,White,Not Hispanic or Latino,English,Lab,PA,8-Feb,21.86447639,21.86447639,1,8
1,Oct-14,5,3,linear,0.2,0,L,1.2381,TRUE,0.2,1,2,Male,White,Not Hispanic or Latino,English,Lab,PA,8-Feb,21.86447639,21.86447639,1,2
1,Oct-14,5,3,linear,0,0.1,R,1.9183,TRUE,0.1,2,8,Male,White,Not Hispanic or Latino,English,Lab,PA,8-Feb,21.86447639,21.86447639,1,8
1,Oct-14,5,4,radial,0,0.05,L,1.5014,FALSE,0.05,1,2,Male,White,Not Hispanic or Latino,English,Lab,PA,8-Feb,21.86447639,21.86447639,1,2
1,Oct-14,5,4,radial,0.1,0,L,0.95109,TRUE,0.1,2,8,Male,White,Not Hispanic or Latino,English,Lab,PA,8-Feb,21.86447639,21.86447639,1,8
1,Oct-14,5,5,radial,0,0.2,R,1.785,TRUE,0.2,1,2,Male,White,Not Hispanic or Latino,English,Lab,PA,8-Feb,21.86447639,21.86447639,1,2
1,Oct-14,5,5,linear,0.15,0,L,0.98398,TRUE,0.15,2,8,Male,White,Not Hispanic or Latino,English,Lab,PA,8-Feb,21.86447639,21.86447639,1,8
1,Oct-14,5,6,linear,0.05,0,L,2.9196,TRUE,0.05,1,2,Male,White,Not Hispanic or Latino,English,Lab,PA,8-Feb,21.86447639,21.86447639,1,2
1,Oct-14,5,6,radial,0,0.15,L,1.9183,FALSE,0.15,2,8,Male,White,Not Hispanic or Latino,English,Lab,PA,8-Feb,21.86447639,21.86447639,1,8
1,Oct-14,5,7,linear,0,0.2,R,0.95095,TRUE,0.2,1,2,Male,White,Not Hispanic or Latino,English,Lab,PA,8-Feb,21.86447639,21.86447639,1,2
1,Oct-14,5,7,radial,0,0.2,R,1.0847,TRUE,0.2,2,8,Male,White,Not Hispanic or Latino,English,Lab,PA,8-Feb,21.86447639,21.86447639,1,8
1,Oct-14,5,8,radial,0,0.15,R,0.90103,TRUE,0.15,1,2,Male,White,Not Hispanic or Latino,English,Lab,PA,8-Feb,21.86447639,21.86447639,1,2
1,Oct-14,5,8,radial,0.05,0,R,1.3514,FALSE,0.05,2,8,Male,White,Not Hispanic or Latino,English,Lab,PA,8-Feb,21.86447639,21.86447639,1,8
1,Oct-14,5,9,radial,0.05,0,R,2.1556,FALSE,0.05,1,2,Male,White,Not Hispanic or Latino,English,Lab,PA,8-Feb,21.86447639,21.86447639,1,2
1,Oct-14,5,9,linear,0.05,0,L,0.834,TRUE,0.05,2,8,Male,White,Not Hispanic or Latino,English,Lab,PA,8-Feb,21.86447639,21.86447639,1,8
1,Oct-14,5,10,radial,0.15,0,L,1.0681,TRUE,0.15,1,2,Male,White,Not Hispanic or Latino,English,Lab,PA,8-Feb,21.86447639,21.86447639,1,2
1,Oct-14,5,10,linear,0,0.15,R,1.8683,TRUE,0.15,2,8,Male,White,Not Hispanic or Latino,English,Lab,PA,8-Feb,21.86447639,21.86447639,1,8
1,Oct-14,5,11,radial,0,0.1,R,1.4945,TRUE,0.1,1,2,Male,White,Not Hispanic or Latino,English,Lab,PA,8-Feb,21.86447639,21.86447639,1,2
1,Oct-14,5,11,linear,0,0.2,R,1.0009,TRUE,0.2,2,8,Male,White,Not Hispanic or Latino,English,Lab,PA,8-Feb,21.86447639,21.86447639,1,8
1,Oct-14,5,12,radial,0.1,0,R,2.1351,FALSE,0.1,1,2,Male,White,Not Hispanic or Latino,English,Lab,PA,8-Feb,21.86447639,21.86447639,1,2
1,Oct-14,5,12,radial,0,0.1,R,1.4177,TRUE,0.1,2,8,Male,White,Not Hispanic or Latino,English,Lab,PA,8-Feb,21.86447639,21.86447639,1,8
1,Oct-14,5,13,linear,0,0.15,R,1.4231,TRUE,0.15,1,2,Male,White,Not Hispanic or Latino,English,Lab,PA,8-Feb,21.86447639,21.86447639,1,2
1,Oct-14,5,13,radial,0,0.05,L,2.7525,FALSE,0.05,2,8,Male,White,Not Hispanic or Latino,English,Lab,PA,8-Feb,21.86447639,21.86447639,1,8
1,Oct-14,5,14,linear,0,0.1,R,1.1176,TRUE,0.1,1,2,Male,White,Not Hispanic or Latino,English,Lab,PA,8-Feb,21.86447639,21.86447639,1,2
1,Oct-14,5,14,linear,0.1,0,R,2.0019,FALSE,0.1,2,8,Male,White,Not Hispanic or Latino,English,Lab,PA,8-Feb,21.86447639,21.86447639,1,8
1,Oct-14,5,15,linear,0,0.05,R,3.737,TRUE,0.05,1,2,Male,White,Not Hispanic or Latino,English,Lab,PA,8-Feb,21.86447639,21.86447639,1,2
1,Oct-14,5,15,radial,0.2,0,L,1.468,TRUE,0.2,2,8,Male,White,Not Hispanic or Latino,English,Lab,PA,8-Feb,21.86447639,21.86447639,1,8
1,Oct-14,5,16,linear,0.15,0,L,1.718,TRUE,0.15,1,2,Male,White,Not Hispanic or Latino,English,Lab,PA,8-Feb,21.86447639,21.86447639,1,2
1,Oct-14,5,16,linear,0,0.05,R,3.2529,TRUE,0.05,2,8,Male,White,Not Hispanic or Latino,English,Lab,PA,8-Feb,21.86447639,21.86447639,1,8
1,Oct-14,1,1,linear,0.1,0,R,2.6154,FALSE,0.1,1,2,Male,White,Not Hispanic or Latino,English,Lab,PA,2-8-2-8,21.90554415,21.90554415,1,2
1,Oct-14,1,1,linear,0.1,0,L,1.1177,TRUE,0.1,3,2,Male,White,Not Hispanic or Latino,English,Lab,PA,2-8-2-8,21.90554415,21.90554415,1,2
1,Oct-14,1,1,radial,0.15,0,L,1.8853,TRUE,0.15,2,8,Male,White,Not Hispanic or Latino,English,Lab,PA,2-8-2-8,21.90554415,21.90554415,1,8
1,Oct-14,1,1,radial,0.15,0,L,1.2344,TRUE,0.15,4,8,Male,White,Not Hispanic or Latino,English,Lab,PA,2-8-2-8,21.90554415,21.90554415,1,8
1,Oct-14,1,2,linear,0.2,0,L,1.7685,TRUE,0.2,1,2,Male,White,Not Hispanic or Latino,English,Lab,PA,2-8-2-8,21.90554415,21.90554415,1,2
1,Oct-14,1,2,linear,0.2,0,L,0.88429,TRUE,0.2,3,2,Male,White,Not Hispanic or Latino,English,Lab,PA,2-8-2-8,21.90554415,21.90554415,1,2
1,Oct-14,1,2,radial,0.1,0,R,3.1692,FALSE,0.1,2,8,Male,White,Not Hispanic or Latino,English,Lab,PA,2-8-2-8,21.90554415,21.90554415,1,8
1,Oct-14,1,2,radial,0.1,0,L,1.6085,TRUE,0.1,4,8,Male,White,Not Hispanic or Latino,English,Lab,PA,2-8-2-8,21.90554415,21.90554415,1,8
1,Oct-14,1,3,radial,0.2,0,L,0.98448,TRUE,0.2,1,2,Male,White,Not Hispanic or Latino,English,Lab,PA,2-8-2-8,21.90554415,21.90554415,1,2
1,Oct-14,1,3,radial,0.2,0,L,1.0009,TRUE,0.2,3,2,Male,White,Not Hispanic or Latino,English,Lab,PA,2-8-2-8,21.90554415,21.90554415,1,2
1,Oct-14,1,3,radial,0,0.15,R,1.1596,TRUE,0.15,2,8,Male,White,Not Hispanic or Latino,English,Lab,PA,2-8-2-8,21.90554415,21.90554415,1,8
1,Oct-14,1,3,radial,0,0.15,R,0.86817,TRUE,0.15,4,8,Male,White,Not Hispanic or Latino,English,Lab,PA,2-8-2-8,21.90554415,21.90554415,1,8
1,Oct-14,1,4,linear,0.05,0,L,3.286,TRUE,0.05,1,2,Male,White,Not Hispanic or Latino,English,Lab,PA,2-8-2-8,21.90554415,21.90554415,1,2
1,Oct-14,1,4,linear,0.05,0,R,1.2698,FALSE,0.05,3,2,Male,White,Not Hispanic or Latino,English,Lab,PA,2-8-2-8,21.90554415,21.90554415,1,2
1,Oct-14,1,4,radial,0,0.2,R,1.3678,TRUE,0.2,2,8,Male,White,Not Hispanic or Latino,English,Lab,PA,2-8-2-8,21.90554415,21.90554415,1,8
1,Oct-14,1,4,radial,0,0.2,R,1.101,TRUE,0.2,4,8,Male,White,Not Hispanic or Latino,English,Lab,PA,2-8-2-8,21.90554415,21.90554415,1,8
1,Oct-14,1,5,linear,0,0.2,L,1.8017,FALSE,0.2,1,2,Male,White,Not Hispanic or Latino,English,Lab,PA,2-8-2-8,21.90554415,21.90554415,1,2
1,Oct-14,1,5,linear,0,0.2,L,0.81755,FALSE,0.2,3,2,Male,White,Not Hispanic or Latino,English,Lab,PA,2-8-2-8,21.90554415,21.90554415,1,2
1,Oct-14,1,5,radial,0.05,0,L,1.9517,TRUE,0.05,2,8,Male,White,Not Hispanic or Latino,English,Lab,PA,2-8-2-8,21.90554415,21.90554415,1,8
1,Oct-14,1,5,radial,0.05,0,R,2.8022,FALSE,0.05,4,8,Male,White,Not Hispanic or Latino,English,Lab,PA,2-8-2-8,21.90554415,21.90554415,1,8
1,Oct-14,1,6,radial,0,0.05,R,3.6066,TRUE,0.05,1,2,Male,White,Not Hispanic or Latino,English,Lab,PA,2-8-2-8,21.90554415,21.90554415,1,2
1,Oct-14,1,6,radial,0,0.05,R,2.5084,TRUE,0.05,3,2,Male,White,Not Hispanic or Latino,English,Lab,PA,2-8-2-8,21.90554415,21.90554415,1,2
1,Oct-14,1,6,linear,0.2,0,L,1.0009,TRUE,0.2,2,8,Male,White,Not Hispanic or Latino,English,Lab,PA,2-8-2-8,21.90554415,21.90554415,1,8
1,Oct-14,1,6,linear,0.2,0,L,0.90075,TRUE,0.2,4,8,Male,White,Not Hispanic or Latino,English,Lab,PA,2-8-2-8,21.90554415,21.90554415,1,8
1,Oct-14,1,7,radial,0,0.2,R,0.85086,TRUE,0.2,1,2,Male,White,Not Hispanic or Latino,English,Lab,PA,2-8-2-8,21.90554415,21.90554415,1,2
1,Oct-14,1,7,radial,0,0.2,R,1.1067,TRUE,0.2,3,2,Male,White,Not Hispanic or Latino,English,Lab,PA,2-8-2-8,21.90554415,21.90554415,1,2
1,Oct-14,1,7,linear,0,0.1,L,1.401,FALSE,0.1,2,8,Male,White,Not Hispanic or Latino,English,Lab,PA,2-8-2-8,21.90554415,21.90554415,1,8
1,Oct-14,1,7,linear,0,0.1,R,1.2679,TRUE,0.1,4,8,Male,White,Not Hispanic or Latino,English,Lab,PA,2-8-2-8,21.90554415,21.90554415,1,8
1,Oct-14,1,8,linear,0,0.15,R,0.96781,TRUE,0.15,1,2,Male,White,Not Hispanic or Latino,English,Lab,PA,2-8-2-8,21.90554415,21.90554415,1,2
1,Oct-14,1,8,linear,0,0.15,R,0.90144,TRUE,0.15,3,2,Male,White,Not Hispanic or Latino,English,Lab,PA,2-8-2-8,21.90554415,21.90554415,1,2
1,Oct-14,1,8,linear,0.15,0,L,1.4181,TRUE,0.15,2,8,Male,White,Not Hispanic or Latino,English,Lab,PA,2-8-2-8,21.90554415,21.90554415,1,8
1,Oct-14,1,8,linear,0.15,0,L,1.3845,TRUE,0.15,4,8,Male,White,Not Hispanic or Latino,English,Lab,PA,2-8-2-8,21.90554415,21.90554415,1,8
1,Oct-14,1,9,radial,0,0.15,R,1.9354,TRUE,0.15,1,2,Male,White,Not Hispanic or Latino,English,Lab,PA,2-8-2-8,21.90554415,21.90554415,1,2
1,Oct-14,1,9,radial,0,0.15,R,1.4724,TRUE,0.15,3,2,Male,White,Not Hispanic or Latino,English,Lab,PA,2-8-2-8,21.90554415,21.90554415,1,2
1,Oct-14,1,9,radial,0,0.1,R,2.36,TRUE,0.1,2,8,Male,White,Not Hispanic or Latino,English,Lab,PA,2-8-2-8,21.90554415,21.90554415,1,8
1,Oct-14,1,9,radial,0,0.1,R,1.301,TRUE,0.1,4,8,Male,White,Not Hispanic or Latino,English,Lab,PA,2-8-2-8,21.90554415,21.90554415,1,8
1,Oct-14,1,10,linear,0,0.1,R,1.8356,TRUE,0.1,1,2,Male,White,Not Hispanic or Latino,English,Lab,PA,2-8-2-8,21.90554415,21.90554415,1,2
1,Oct-14,1,10,linear,0,0.1,L,1.6684,FALSE,0.1,3,2,Male,White,Not Hispanic or Latino,English,Lab,PA,2-8-2-8,21.90554415,21.90554415,1,2
1,Oct-14,1,10,linear,0.05,0,L,3.4696,TRUE,0.05,2,8,Male,White,Not Hispanic or Latino,English,Lab,PA,2-8-2-8,21.90554415,21.90554415,1,8
1,Oct-14,1,10,linear,0.05,0,L,1.4179,TRUE,0.05,4,8,Male,White,Not Hispanic or Latino,English,Lab,PA,2-8-2-8,21.90554415,21.90554415,1,8
1,Oct-14,1,11,radial,0.05,0,L,3.3196,TRUE,0.05,1,2,Male,White,Not Hispanic or Latino,English,Lab,PA,2-8-2-8,21.90554415,21.90554415,1,2
1,Oct-14,1,11,radial,0.05,0,R,2.0541,FALSE,0.05,3,2,Male,White,Not Hispanic or Latino,English,Lab,PA,2-8-2-8,21.90554415,21.90554415,1,2
1,Oct-14,1,11,radial,0,0.05,L,1.8183,FALSE,0.05,2,8,Male,White,Not Hispanic or Latino,English,Lab,PA,2-8-2-8,21.90554415,21.90554415,1,8
1,Oct-14,1,11,radial,0,0.05,R,1.0509,TRUE,0.05,4,8,Male,White,Not Hispanic or Latino,English,Lab,PA,2-8-2-8,21.90554415,21.90554415,1,8
1,Oct-14,1,12,linear,0,0.05,L,1.8183,FALSE,0.05,1,2,Male,White,Not Hispanic or Latino,English,Lab,PA,2-8-2-8,21.90554415,21.90554415,1,2
1,Oct-14,1,12,linear,0,0.05,R,1.7856,TRUE,0.05,3,2,Male,White,Not Hispanic or Latino,English,Lab,PA,2-8-2-8,21.90554415,21.90554415,1,2
1,Oct-14,1,12,radial,0.2,0,L,1.0844,TRUE,0.2,2,8,Male,White,Not Hispanic or Latino,English,Lab,PA,2-8-2-8,21.90554415,21.90554415,1,8
1,Oct-14,1,12,radial,0.2,0,L,1.0512,TRUE,0.2,4,8,Male,White,Not Hispanic or Latino,English,Lab,PA,2-8-2-8,21.90554415,21.90554415,1,8
1,Oct-14,1,13,radial,0.15,0,L,1.6016,TRUE,0.15,1,2,Male,White,Not Hispanic or Latino,English,Lab,PA,2-8-2-8,21.90554415,21.90554415,1,2
1,Oct-14,1,13,radial,0.15,0,R,1.9683,FALSE,0.15,3,2,Male,White,Not Hispanic or Latino,English,Lab,PA,2-8-2-8,21.90554415,21.90554415,1,2
1,Oct-14,1,13,linear,0,0.15,L,1.8519,FALSE,0.15,2,8,Male,White,Not Hispanic or Latino,English,Lab,PA,2-8-2-8,21.90554415,21.90554415,1,8
1,Oct-14,1,13,linear,0,0.15,R,2.1683,TRUE,0.15,4,8,Male,White,Not Hispanic or Latino,English,Lab,PA,2-8-2-8,21.90554415,21.90554415,1,8
1,Oct-14,1,14,linear,0.15,0,L,2.2872,TRUE,0.15,1,2,Male,White,Not Hispanic or Latino,English,Lab,PA,2-8-2-8,21.90554415,21.90554415,1,2
1,Oct-14,1,14,linear,0.15,0,L,0.71756,TRUE,0.15,3,2,Male,White,Not Hispanic or Latino,English,Lab,PA,2-8-2-8,21.90554415,21.90554415,1,2
1,Oct-14,1,14,linear,0,0.2,R,1.9517,TRUE,0.2,2,8,Male,White,Not Hispanic or Latino,English,Lab,PA,2-8-2-8,21.90554415,21.90554415,1,8
1,Oct-14,1,14,linear,0,0.2,R,1.9518,TRUE,0.2,4,8,Male,White,Not Hispanic or Latino,English,Lab,PA,2-8-2-8,21.90554415,21.90554415,1,8
1,Oct-14,1,15,radial,0,0.1,L,1.4352,FALSE,0.1,1,2,Male,White,Not Hispanic or Latino,English,Lab,PA,2-8-2-8,21.90554415,21.90554415,1,2
1,Oct-14,1,15,radial,0,0.1,R,1.3011,TRUE,0.1,3,2,Male,White,Not Hispanic or Latino,English,Lab,PA,2-8-2-8,21.90554415,21.90554415,1,2
1,Oct-14,1,15,linear,0.1,0,R,2.7022,FALSE,0.1,2,8,Male,White,Not Hispanic or Latino,English,Lab,PA,2-8-2-8,21.90554415,21.90554415,1,8
1,Oct-14,1,15,linear,0.1,0,R,1.8684,FALSE,0.1,4,8,Male,White,Not Hispanic or Latino,English,Lab,PA,2-8-2-8,21.90554415,21.90554415,1,8
1,Oct-14,1,16,radial,0.1,0,L,2.7359,TRUE,0.1,1,2,Male,White,Not Hispanic or Latino,English,Lab,PA,2-8-2-8,21.90554415,21.90554415,1,2
1,Oct-14,1,16,radial,0.1,0,L,1.2845,TRUE,0.1,3,2,Male,White,Not Hispanic or Latino,English,Lab,PA,2-8-2-8,21.90554415,21.90554415,1,2
1,Oct-14,1,16,linear,0,0.05,L,2.3352,FALSE,0.05,2,8,Male,White,Not Hispanic or Latino,English,Lab,PA,2-8-2-8,21.90554415,21.90554415,1,8
1,Oct-14,1,16,linear,0,0.05,R,2.7358,TRUE,0.05,4,8,Male,White,Not Hispanic or Latino,English,Lab,PA,2-8-2-8,21.90554415,21.90554415,1,8
1,Oct-14,2,1,radial,0.2,0,L,1.6012,TRUE,0.2,1,2,Male,White,Not Hispanic or Latino,English,Lab,PA,2-8-2-8,21.90554415,21.90554415,1,2
1,Oct-14,2,1,radial,0.2,0,L,1.051,TRUE,0.2,3,2,Male,White,Not Hispanic or Latino,English,Lab,PA,2-8-2-8,21.90554415,21.90554415,1,2
1,Oct-14,2,1,linear,0.2,0,L,0.98428,TRUE,0.2,2,8,Male,White,Not Hispanic or Latino,English,Lab,PA,2-8-2-8,21.90554415,21.90554415,1,8
1,Oct-14,2,1,linear,0.2,0,L,0.96776,TRUE,0.2,4,8,Male,White,Not Hispanic or Latino,English,Lab,PA,2-8-2-8,21.90554415,21.90554415,1,8
1,Oct-14,2,2,linear,0.1,0,L,2.0765,TRUE,0.1,1,2,Male,White,Not Hispanic or Latino,English,Lab,PA,2-8-2-8,21.90554415,21.90554415,1,2
1,Oct-14,2,2,linear,0.1,0,L,0.96758,TRUE,0.1,3,2,Male,White,Not Hispanic or Latino,English,Lab,PA,2-8-2-8,21.90554415,21.90554415,1,2
1,Oct-14,2,2,radial,0.15,0,L,1.9685,TRUE,0.15,2,8,Male,White,Not Hispanic or Latino,English,Lab,PA,2-8-2-8,21.90554415,21.90554415,1,8
1,Oct-14,2,2,radial,0.15,0,L,1.0176,TRUE,0.15,4,8,Male,White,Not Hispanic or Latino,English,Lab,PA,2-8-2-8,21.90554415,21.90554415,1,8
1,Oct-14,2,3,linear,0.2,0,L,1.4865,TRUE,0.2,1,2,Male,White,Not Hispanic or Latino,English,Lab,PA,2-8-2-8,21.90554415,21.90554415,1,2
1,Oct-14,2,3,linear,0.2,0,L,0.75052,TRUE,0.2,3,2,Male,White,Not Hispanic or Latino,English,Lab,PA,2-8-2-8,21.90554415,21.90554415,1,2
1,Oct-14,2,3,linear,0,0.1,R,2.8691,TRUE,0.1,2,8,Male,White,Not Hispanic or Latino,English,Lab,PA,2-8-2-8,21.90554415,21.90554415,1,8
1,Oct-14,2,3,linear,0,0.1,L,1.3349,FALSE,0.1,4,8,Male,White,Not Hispanic or Latino,English,Lab,PA,2-8-2-8,21.90554415,21.90554415,1,8
1,Oct-14,2,4,linear,0.05,0,L,1.7847,TRUE,0.05,1,2,Male,White,Not Hispanic or Latino,English,Lab,PA,2-8-2-8,21.90554415,21.90554415,1,2
1,Oct-14,2,4,linear,0.05,0,R,1.9851,FALSE,0.05,3,2,Male,White,Not Hispanic or Latino,English,Lab,PA,2-8-2-8,21.90554415,21.90554415,1,2
1,Oct-14,2,4,radial,0.1,0,L,1.7852,TRUE,0.1,2,8,Male,White,Not Hispanic or Latino,English,Lab,PA,2-8-2-8,21.90554415,21.90554415,1,8
1,Oct-14,2,4,radial,0.1,0,L,1.4203,TRUE,0.1,4,8,Male,White,Not Hispanic or Latino,English,Lab,PA,2-8-2-8,21.90554415,21.90554415,1,8
1,Oct-14,2,5,linear,0,0.2,R,1.1513,TRUE,0.2,1,2,Male,White,Not Hispanic or Latino,English,Lab,PA,2-8-2-8,21.90554415,21.90554415,1,2
1,Oct-14,2,5,linear,0,0.2,L,0.98434,FALSE,0.2,3,2,Male,White,Not Hispanic or Latino,English,Lab,PA,2-8-2-8,21.90554415,21.90554415,1,2
1,Oct-14,2,5,radial,0,0.15,R,1.5511,TRUE,0.15,2,8,Male,White,Not Hispanic or Latino,English,Lab,PA,2-8-2-8,21.90554415,21.90554415,1,8
1,Oct-14,2,5,radial,0,0.15,R,1.055,TRUE,0.15,4,8,Male,White,Not Hispanic or Latino,English,Lab,PA,2-8-2-8,21.90554415,21.90554415,1,8
1,Oct-14,2,6,radial,0,0.05,L,2.0548,FALSE,0.05,1,2,Male,White,Not Hispanic or Latino,English,Lab,PA,2-8-2-8,21.90554415,21.90554415,1,2
1,Oct-14,2,6,radial,0,0.05,L,1.3678,FALSE,0.05,3,2,Male,White,Not Hispanic or Latino,English,Lab,PA,2-8-2-8,21.90554415,21.90554415,1,2
1,Oct-14,2,6,linear,0.15,0,R,2.9524,FALSE,0.15,2,8,Male,White,Not Hispanic or Latino,English,Lab,PA,2-8-2-8,21.90554415,21.90554415,1,8
1,Oct-14,2,6,linear,0.15,0,L,1.0514,TRUE,0.15,4,8,Male,White,Not Hispanic or Latino,English,Lab,PA,2-8-2-8,21.90554415,21.90554415,1,8
1,Oct-14,2,7,radial,0,0.2,R,1.1178,TRUE,0.2,1,2,Male,White,Not Hispanic or Latino,English,Lab,PA,2-8-2-8,21.90554415,21.90554415,1,2
1,Oct-14,2,7,radial,0,0.2,R,0.9176,TRUE,0.2,3,2,Male,White,Not Hispanic or Latino,English,Lab,PA,2-8-2-8,21.90554415,21.90554415,1,2
1,Oct-14,2,7,radial,0,0.2,R,1.0009,TRUE,0.2,2,8,Male,White,Not Hispanic or Latino,English,Lab,PA,2-8-2-8,21.90554415,21.90554415,1,8
1,Oct-14,2,7,radial,0,0.2,R,0.98444,TRUE,0.2,4,8,Male,White,Not Hispanic or Latino,English,Lab,PA,2-8-2-8,21.90554415,21.90554415,1,8
1,Oct-14,2,8,linear,0,0.15,R,1.2384,TRUE,0.15,1,2,Male,White,Not Hispanic or Latino,English,Lab,PA,2-8-2-8,21.90554415,21.90554415,1,2
1,Oct-14,2,8,linear,0,0.15,R,1.5897,TRUE,0.15,3,2,Male,White,Not Hispanic or Latino,English,Lab,PA,2-8-2-8,21.90554415,21.90554415,1,2
1,Oct-14,2,8,radial,0.05,0,R,1.9518,FALSE,0.05,2,8,Male,White,Not Hispanic or Latino,English,Lab,PA,2-8-2-8,21.90554415,21.90554415,1,8
1,Oct-14,2,8,radial,0.05,0,R,3.6706,FALSE,0.05,4,8,Male,White,Not Hispanic or Latino,English,Lab,PA,2-8-2-8,21.90554415,21.90554415,1,8
1,Oct-14,2,9,linear,0,0.1,L,1.4512,FALSE,0.1,1,2,Male,White,Not Hispanic or Latino,English,Lab,PA,2-8-2-8,21.90554415,21.90554415,1,2
1,Oct-14,2,9,linear,0,0.1,L,0.8025,FALSE,0.1,3,2,Male,White,Not Hispanic or Latino,English,Lab,PA,2-8-2-8,21.90554415,21.90554415,1,2
1,Oct-14,2,9,radial,0,0.1,L,3.1239,FALSE,0.1,2,8,Male,White,Not Hispanic or Latino,English,Lab,PA,2-8-2-8,21.90554415,21.90554415,1,8
1,Oct-14,2,9,radial,0,0.1,R,2.1683,TRUE,0.1,4,8,Male,White,Not Hispanic or Latino,English,Lab,PA,2-8-2-8,21.90554415,21.90554415,1,8
1,Oct-14,2,10,radial,0,0.15,R,1.0679,TRUE,0.15,1,2,Male,White,Not Hispanic or Latino,English,Lab,PA,2-8-2-8,21.90554415,21.90554415,1,2
1,Oct-14,2,10,radial,0,0.15,L,2.569,FALSE,0.15,3,2,Male,White,Not Hispanic or Latino,English,Lab,PA,2-8-2-8,21.90554415,21.90554415,1,2
1,Oct-14,2,10,linear,0.05,0,L,1.2513,TRUE,0.05,2,8,Male,White,Not Hispanic or Latino,English,Lab,PA,2-8-2-8,21.90554415,21.90554415,1,8
1,Oct-14,2,10,linear,0.05,0,L,1.3012,TRUE,0.05,4,8,Male,White,Not Hispanic or Latino,English,Lab,PA,2-8-2-8,21.90554415,21.90554415,1,8
1,Oct-14,2,11,radial,0.05,0,R,2.669,FALSE,0.05,1,2,Male,White,Not Hispanic or Latino,English,Lab,PA,2-8-2-8,21.90554415,21.90554415,1,2
1,Oct-14,2,11,radial,0.05,0,L,1.537,TRUE,0.05,3,2,Male,White,Not Hispanic or Latino,English,Lab,PA,2-8-2-8,21.90554415,21.90554415,1,2
1,Oct-14,2,11,radial,0,0.05,R,3.1886,TRUE,0.05,2,8,Male,White,Not Hispanic or Latino,English,Lab,PA,2-8-2-8,21.90554415,21.90554415,1,8
1,Oct-14,2,11,radial,0,0.05,R,2.2184,TRUE,0.05,4,8,Male,White,Not Hispanic or Latino,English,Lab,PA,2-8-2-8,21.90554415,21.90554415,1,8
1,Oct-14,2,12,radial,0.15,0,L,1.7683,TRUE,0.15,1,2,Male,White,Not Hispanic or Latino,English,Lab,PA,2-8-2-8,21.90554415,21.90554415,1,2
1,Oct-14,2,12,radial,0.15,0,R,1.7183,FALSE,0.15,3,2,Male,White,Not Hispanic or Latino,English,Lab,PA,2-8-2-8,21.90554415,21.90554415,1,2
1,Oct-14,2,12,linear,0,0.15,L,1.5347,FALSE,0.15,2,8,Male,White,Not Hispanic or Latino,English,Lab,PA,2-8-2-8,21.90554415,21.90554415,1,8
1,Oct-14,2,12,linear,0,0.15,R,1.552,TRUE,0.15,4,8,Male,White,Not Hispanic or Latino,English,Lab,PA,2-8-2-8,21.90554415,21.90554415,1,8
1,Oct-14,2,13,linear,0,0.05,R,2.3185,TRUE,0.05,1,2,Male,White,Not Hispanic or Latino,English,Lab,PA,2-8-2-8,21.90554415,21.90554415,1,2
1,Oct-14,2,13,linear,0,0.05,R,1.5012,TRUE,0.05,3,2,Male,White,Not Hispanic or Latino,English,Lab,PA,2-8-2-8,21.90554415,21.90554415,1,2
1,Oct-14,2,13,linear,0,0.2,R,1.9019,TRUE,0.2,2,8,Male,White,Not Hispanic or Latino,English,Lab,PA,2-8-2-8,21.90554415,21.90554415,1,8
1,Oct-14,2,13,linear,0,0.2,R,1.1844,TRUE,0.2,4,8,Male,White,Not Hispanic or Latino,English,Lab,PA,2-8-2-8,21.90554415,21.90554415,1,8
1,Oct-14,2,14,radial,0,0.1,R,1.9682,TRUE,0.1,1,2,Male,White,Not Hispanic or Latino,English,Lab,PA,2-8-2-8,21.90554415,21.90554415,1,2
1,Oct-14,2,14,radial,0,0.1,R,0.951,TRUE,0.1,3,2,Male,White,Not Hispanic or Latino,English,Lab,PA,2-8-2-8,21.90554415,21.90554415,1,2
1,Oct-14,2,14,linear,0.1,0,L,2.1375,TRUE,0.1,2,8,Male,White,Not Hispanic or Latino,English,Lab,PA,2-8-2-8,21.90554415,21.90554415,1,8
1,Oct-14,2,14,linear,0.1,0,L,1.051,TRUE,0.1,4,8,Male,White,Not Hispanic or Latino,English,Lab,PA,2-8-2-8,21.90554415,21.90554415,1,8
1,Oct-14,2,15,radial,0.1,0,R,1.9018,FALSE,0.1,1,2,Male,White,Not Hispanic or Latino,English,Lab,PA,2-8-2-8,21.90554415,21.90554415,1,2
1,Oct-14,2,15,radial,0.1,0,L,3.3028,TRUE,0.1,3,2,Male,White,Not Hispanic or Latino,English,Lab,PA,2-8-2-8,21.90554415,21.90554415,1,2
1,Oct-14,2,15,radial,0.2,0,L,0.78431,TRUE,0.2,2,8,Male,White,Not Hispanic or Latino,English,Lab,PA,2-8-2-8,21.90554415,21.90554415,1,8
1,Oct-14,2,15,radial,0.2,0,L,0.88425,TRUE,0.2,4,8,Male,White,Not Hispanic or Latino,English,Lab,PA,2-8-2-8,21.90554415,21.90554415,1,8
1,Oct-14,2,16,linear,0.15,0,L,0.83439,TRUE,0.15,1,2,Male,White,Not Hispanic or Latino,English,Lab,PA,2-8-2-8,21.90554415,21.90554415,1,2
1,Oct-14,2,16,linear,0.15,0,L,2.3018,TRUE,0.15,3,2,Male,White,Not Hispanic or Latino,English,Lab,PA,2-8-2-8,21.90554415,21.90554415,1,2
1,Oct-14,2,16,linear,0,0.05,R,2.102,TRUE,0.05,2,8,Male,White,Not Hispanic or Latino,English,Lab,PA,2-8-2-8,21.90554415,21.90554415,1,8
1,Oct-14,2,16,linear,0,0.05,R,1.578,TRUE,0.05,4,8,Male,White,Not Hispanic or Latino,English,Lab,PA,2-8-2-8,21.90554415,21.90554415,1,8
1,Oct-14,3,1,radial,0.2,0,L,1.8017,TRUE,0.2,1,2,Male,White,Not Hispanic or Latino,English,Lab,PA,2-8-2-8,21.90554415,21.90554415,1,2
1,Oct-14,3,1,radial,0.2,0,L,2.29,TRUE,0.2,3,2,Male,White,Not Hispanic or Latino,English,Lab,PA,2-8-2-8,21.90554415,21.90554415,1,2
1,Oct-14,3,1,radial,0.15,0,L,1.2676,TRUE,0.15,2,8,Male,White,Not Hispanic or Latino,English,Lab,PA,2-8-2-8,21.90554415,21.90554415,1,8
1,Oct-14,3,1,radial,0.15,0,L,1.3183,TRUE,0.15,4,8,Male,White,Not Hispanic or Latino,English,Lab,PA,2-8-2-8,21.90554415,21.90554415,1,8
1,Oct-14,3,2,radial,0,0.05,L,2.6356,FALSE,0.05,1,2,Male,White,Not Hispanic or Latino,English,Lab,PA,2-8-2-8,21.90554415,21.90554415,1,2
1,Oct-14,3,2,radial,0,0.05,L,2.569,FALSE,0.05,3,2,Male,White,Not Hispanic or Latino,English,Lab,PA,2-8-2-8,21.90554415,21.90554415,1,2
1,Oct-14,3,2,radial,0.1,0,L,1.9538,TRUE,0.1,2,8,Male,White,Not Hispanic or Latino,English,Lab,PA,2-8-2-8,21.90554415,21.90554415,1,8
1,Oct-14,3,2,radial,0.1,0,R,1.735,FALSE,0.1,4,8,Male,White,Not Hispanic or Latino,English,Lab,PA,2-8-2-8,21.90554415,21.90554415,1,8
1,Oct-14,3,3,radial,0,0.2,R,1.2679,TRUE,0.2,1,2,Male,White,Not Hispanic or Latino,English,Lab,PA,2-8-2-8,21.90554415,21.90554415,1,2
1,Oct-14,3,3,radial,0,0.2,L,0.9676,FALSE,0.2,3,2,Male,White,Not Hispanic or Latino,English,Lab,PA,2-8-2-8,21.90554415,21.90554415,1,2
1,Oct-14,3,3,radial,0,0.15,R,1.3098,TRUE,0.15,2,8,Male,White,Not Hispanic or Latino,English,Lab,PA,2-8-2-8,21.90554415,21.90554415,1,8
1,Oct-14,3,3,radial,0,0.15,R,1.1677,TRUE,0.15,4,8,Male,White,Not Hispanic or Latino,English,Lab,PA,2-8-2-8,21.90554415,21.90554415,1,8
1,Oct-14,3,4,radial,0,0.15,R,1.8519,TRUE,0.15,1,2,Male,White,Not Hispanic or Latino,English,Lab,PA,2-8-2-8,21.90554415,21.90554415,1,2
1,Oct-14,3,4,radial,0,0.15,R,1.3752,TRUE,0.15,3,2,Male,White,Not Hispanic or Latino,English,Lab,PA,2-8-2-8,21.90554415,21.90554415,1,2
1,Oct-14,3,4,radial,0,0.2,R,0.9845,TRUE,0.2,2,8,Male,White,Not Hispanic or Latino,English,Lab,PA,2-8-2-8,21.90554415,21.90554415,1,8
1,Oct-14,3,4,radial,0,0.2,R,0.98436,TRUE,0.2,4,8,Male,White,Not Hispanic or Latino,English,Lab,PA,2-8-2-8,21.90554415,21.90554415,1,8
1,Oct-14,3,5,linear,0.1,0,L,1.2049,TRUE,0.1,1,2,Male,White,Not Hispanic or Latino,English,Lab,PA,2-8-2-8,21.90554415,21.90554415,1,2
1,Oct-14,3,5,linear,0.1,0,L,1.5682,TRUE,0.1,3,2,Male,White,Not Hispanic or Latino,English,Lab,PA,2-8-2-8,21.90554415,21.90554415,1,2
1,Oct-14,3,5,radial,0.05,0,R,1.5452,FALSE,0.05,2,8,Male,White,Not Hispanic or Latino,English,Lab,PA,2-8-2-8,21.90554415,21.90554415,1,8
1,Oct-14,3,5,radial,0.05,0,R,2.3526,FALSE,0.05,4,8,Male,White,Not Hispanic or Latino,English,Lab,PA,2-8-2-8,21.90554415,21.90554415,1,8
1,Oct-14,3,6,linear,0.2,0,L,0.85104,TRUE,0.2,1,2,Male,White,Not Hispanic or Latino,English,Lab,PA,2-8-2-8,21.90554415,21.90554415,1,2
1,Oct-14,3,6,linear,0.2,0,L,0.96798,TRUE,0.2,3,2,Male,White,Not Hispanic or Latino,English,Lab,PA,2-8-2-8,21.90554415,21.90554415,1,2
1,Oct-14,3,6,radial,0,0.1,R,1.9021,TRUE,0.1,2,8,Male,White,Not Hispanic or Latino,English,Lab,PA,2-8-2-8,21.90554415,21.90554415,1,8
1,Oct-14,3,6,radial,0,0.1,R,1.8354,TRUE,0.1,4,8,Male,White,Not Hispanic or Latino,English,Lab,PA,2-8-2-8,21.90554415,21.90554415,1,8
1,Oct-14,3,7,linear,0.05,0,R,2.1184,FALSE,0.05,1,2,Male,White,Not Hispanic or Latino,English,Lab,PA,2-8-2-8,21.90554415,21.90554415,1,2
1,Oct-14,3,7,linear,0.05,0,R,1.9014,FALSE,0.05,3,2,Male,White,Not Hispanic or Latino,English,Lab,PA,2-8-2-8,21.90554415,21.90554415,1,2
1,Oct-14,3,7,radial,0,0.05,L,2.969,FALSE,0.05,2,8,Male,White,Not Hispanic or Latino,English,Lab,PA,2-8-2-8,21.90554415,21.90554415,1,8
1,Oct-14,3,7,radial,0,0.05,R,1.5179,TRUE,0.05,4,8,Male,White,Not Hispanic or Latino,English,Lab,PA,2-8-2-8,21.90554415,21.90554415,1,8
1,Oct-14,3,8,linear,0,0.2,L,1.8351,FALSE,0.2,1,2,Male,White,Not Hispanic or Latino,English,Lab,PA,2-8-2-8,21.90554415,21.90554415,1,2
1,Oct-14,3,8,linear,0,0.2,R,1.0513,TRUE,0.2,3,2,Male,White,Not Hispanic or Latino,English,Lab,PA,2-8-2-8,21.90554415,21.90554415,1,2
1,Oct-14,3,8,linear,0.2,0,L,1.0511,TRUE,0.2,2,8,Male,White,Not Hispanic or Latino,English,Lab,PA,2-8-2-8,21.90554415,21.90554415,1,8
1,Oct-14,3,8,linear,0.2,0,L,0.95094,TRUE,0.2,4,8,Male,White,Not Hispanic or Latino,English,Lab,PA,2-8-2-8,21.90554415,21.90554415,1,8
1,Oct-14,3,9,linear,0,0.15,R,1.1846,TRUE,0.15,1,2,Male,White,Not Hispanic or Latino,English,Lab,PA,2-8-2-8,21.90554415,21.90554415,1,2
1,Oct-14,3,9,linear,0,0.15,L,2.0353,FALSE,0.15,3,2,Male,White,Not Hispanic or Latino,English,Lab,PA,2-8-2-8,21.90554415,21.90554415,1,2
1,Oct-14,3,9,linear,0,0.1,L,1.2847,FALSE,0.1,2,8,Male,White,Not Hispanic or Latino,English,Lab,PA,2-8-2-8,21.90554415,21.90554415,1,8
1,Oct-14,3,9,linear,0,0.1,R,2.2019,TRUE,0.1,4,8,Male,White,Not Hispanic or Latino,English,Lab,PA,2-8-2-8,21.90554415,21.90554415,1,8
1,Oct-14,3,10,radial,0.05,0,R,1.785,FALSE,0.05,1,2,Male,White,Not Hispanic or Latino,English,Lab,PA,2-8-2-8,21.90554415,21.90554415,1,2
1,Oct-14,3,10,radial,0.05,0,R,1.2844,FALSE,0.05,3,2,Male,White,Not Hispanic or Latino,English,Lab,PA,2-8-2-8,21.90554415,21.90554415,1,2
1,Oct-14,3,10,radial,0.2,0,L,0.90095,TRUE,0.2,2,8,Male,White,Not Hispanic or Latino,English,Lab,PA,2-8-2-8,21.90554415,21.90554415,1,8
1,Oct-14,3,10,radial,0.2,0,L,0.83417,TRUE,0.2,4,8,Male,White,Not Hispanic or Latino,English,Lab,PA,2-8-2-8,21.90554415,21.90554415,1,8
1,Oct-14,3,11,radial,0.15,0,L,0.93435,TRUE,0.15,1,2,Male,White,Not Hispanic or Latino,English,Lab,PA,2-8-2-8,21.90554415,21.90554415,1,2
1,Oct-14,3,11,radial,0.15,0,L,1.0178,TRUE,0.15,3,2,Male,White,Not Hispanic or Latino,English,Lab,PA,2-8-2-8,21.90554415,21.90554415,1,2
1,Oct-14,3,11,linear,0.15,0,L,0.95106,TRUE,0.15,2,8,Male,White,Not Hispanic or Latino,English,Lab,PA,2-8-2-8,21.90554415,21.90554415,1,8
1,Oct-14,3,11,linear,0.15,0,L,1.0342,TRUE,0.15,4,8,Male,White,Not Hispanic or Latino,English,Lab,PA,2-8-2-8,21.90554415,21.90554415,1,8
1,Oct-14,3,12,radial,0,0.1,R,2.3186,TRUE,0.1,1,2,Male,White,Not Hispanic or Latino,English,Lab,PA,2-8-2-8,21.90554415,21.90554415,1,2
1,Oct-14,3,12,radial,0,0.1,L,1.9017,FALSE,0.1,3,2,Male,White,Not Hispanic or Latino,English,Lab,PA,2-8-2-8,21.90554415,21.90554415,1,2
1,Oct-14,3,12,linear,0.05,0,R,2.1355,FALSE,0.05,2,8,Male,White,Not Hispanic or Latino,English,Lab,PA,2-8-2-8,21.90554415,21.90554415,1,8
1,Oct-14,3,12,linear,0.05,0,R,1.0843,FALSE,0.05,4,8,Male,White,Not Hispanic or Latino,English,Lab,PA,2-8-2-8,21.90554415,21.90554415,1,8
1,Oct-14,3,13,radial,0.1,0,R,2.6191,FALSE,0.1,1,2,Male,White,Not Hispanic or Latino,English,Lab,PA,2-8-2-8,21.90554415,21.90554415,1,2
1,Oct-14,3,13,radial,0.1,0,R,2.7525,FALSE,0.1,3,2,Male,White,Not Hispanic or Latino,English,Lab,PA,2-8-2-8,21.90554415,21.90554415,1,2
1,Oct-14,3,13,linear,0,0.15,L,1.001,FALSE,0.15,2,8,Male,White,Not Hispanic or Latino,English,Lab,PA,2-8-2-8,21.90554415,21.90554415,1,8
1,Oct-14,3,13,linear,0,0.15,L,0.93417,FALSE,0.15,4,8,Male,White,Not Hispanic or Latino,English,Lab,PA,2-8-2-8,21.90554415,21.90554415,1,8
1,Oct-14,3,14,linear,0,0.1,L,1.8852,FALSE,0.1,1,2,Male,White,Not Hispanic or Latino,English,Lab,PA,2-8-2-8,21.90554415,21.90554415,1,2
1,Oct-14,3,14,linear,0,0.1,R,1.4346,TRUE,0.1,3,2,Male,White,Not Hispanic or Latino,English,Lab,PA,2-8-2-8,21.90554415,21.90554415,1,2
1,Oct-14,3,14,linear,0,0.2,R,1.351,TRUE,0.2,2,8,Male,White,Not Hispanic or Latino,English,Lab,PA,2-8-2-8,21.90554415,21.90554415,1,8
1,Oct-14,3,14,linear,0,0.2,R,1.001,TRUE,0.2,4,8,Male,White,Not Hispanic or Latino,English,Lab,PA,2-8-2-8,21.90554415,21.90554415,1,8
1,Oct-14,3,15,linear,0,0.05,L,1.1513,FALSE,0.05,1,2,Male,White,Not Hispanic or Latino,English,Lab,PA,2-8-2-8,21.90554415,21.90554415,1,2
1,Oct-14,3,15,linear,0,0.05,R,1.8515,TRUE,0.05,3,2,Male,White,Not Hispanic or Latino,English,Lab,PA,2-8-2-8,21.90554415,21.90554415,1,2
1,Oct-14,3,15,linear,0.1,0,L,2.0688,TRUE,0.1,2,8,Male,White,Not Hispanic or Latino,English,Lab,PA,2-8-2-8,21.90554415,21.90554415,1,8
1,Oct-14,3,15,linear,0.1,0,R,2.4519,FALSE,0.1,4,8,Male,White,Not Hispanic or Latino,English,Lab,PA,2-8-2-8,21.90554415,21.90554415,1,8
1,Oct-14,3,16,linear,0.15,0,L,1.062,TRUE,0.15,1,2,Male,White,Not Hispanic or Latino,English,Lab,PA,2-8-2-8,21.90554415,21.90554415,1,2
1,Oct-14,3,16,linear,0.15,0,L,1.0343,TRUE,0.15,3,2,Male,White,Not Hispanic or Latino,English,Lab,PA,2-8-2-8,21.90554415,21.90554415,1,2
1,Oct-14,3,16,linear,0,0.05,L,1.1347,FALSE,0.05,2,8,Male,White,Not Hispanic or Latino,English,Lab,PA,2-8-2-8,21.90554415,21.90554415,1,8
1,Oct-14,3,16,linear,0,0.05,R,2.1519,TRUE,0.05,4,8,Male,White,Not Hispanic or Latino,English,Lab,PA,2-8-2-8,21.90554415,21.90554415,1,8
1,Oct-14,4,1,linear,0.1,0,L,0.98631,TRUE,0.1,1,2,Male,White,Not Hispanic or Latino,English,Lab,PA,2-8-2-8,21.90554415,21.90554415,1,2
1,Oct-14,4,1,linear,0.1,0,L,3.72,TRUE,0.1,3,2,Male,White,Not Hispanic or Latino,English,Lab,PA,2-8-2-8,21.90554415,21.90554415,1,2
1,Oct-14,4,1,radial,0.15,0,L,2.6857,TRUE,0.15,2,8,Male,White,Not Hispanic or Latino,English,Lab,PA,2-8-2-8,21.90554415,21.90554415,1,8
1,Oct-14,4,1,radial,0.15,0,L,1.5915,TRUE,0.15,4,8,Male,White,Not Hispanic or Latino,English,Lab,PA,2-8-2-8,21.90554415,21.90554415,1,8
1,Oct-14,4,2,radial,0.2,0,L,1.4514,TRUE,0.2,1,2,Male,White,Not Hispanic or Latino,English,Lab,PA,2-8-2-8,21.90554415,21.90554415,1,2
1,Oct-14,4,2,radial,0.2,0,L,1.0176,TRUE,0.2,3,2,Male,White,Not Hispanic or Latino,English,Lab,PA,2-8-2-8,21.90554415,21.90554415,1,2
1,Oct-14,4,2,linear,0.2,0,L,1.2846,TRUE,0.2,2,8,Male,White,Not Hispanic or Latino,English,Lab,PA,2-8-2-8,21.90554415,21.90554415,1,8
1,Oct-14,4,2,linear,0.2,0,L,0.76747,TRUE,0.2,4,8,Male,White,Not Hispanic or Latino,English,Lab,PA,2-8-2-8,21.90554415,21.90554415,1,8
1,Oct-14,4,3,radial,0,0.05,R,2.6522,TRUE,0.05,1,2,Male,White,Not Hispanic or Latino,English,Lab,PA,2-8-2-8,21.90554415,21.90554415,1,2
1,Oct-14,4,3,radial,0,0.05,L,1.4347,FALSE,0.05,3,2,Male,White,Not Hispanic or Latino,English,Lab,PA,2-8-2-8,21.90554415,21.90554415,1,2
1,Oct-14,4,3,radial,0.1,0,R,2.6691,FALSE,0.1,2,8,Male,White,Not Hispanic or Latino,English,Lab,PA,2-8-2-8,21.90554415,21.90554415,1,8
1,Oct-14,4,3,radial,0.1,0,R,2.4886,FALSE,0.1,4,8,Male,White,Not Hispanic or Latino,English,Lab,PA,2-8-2-8,21.90554415,21.90554415,1,8
1,Oct-14,4,4,linear,0.2,0,L,0.86755,TRUE,0.2,1,2,Male,White,Not Hispanic or Latino,English,Lab,PA,2-8-2-8,21.90554415,21.90554415,1,2
1,Oct-14,4,4,linear,0.2,0,L,0.90088,TRUE,0.2,3,2,Male,White,Not Hispanic or Latino,English,Lab,PA,2-8-2-8,21.90554415,21.90554415,1,2
1,Oct-14,4,4,radial,0,0.15,L,1.9518,FALSE,0.15,2,8,Male,White,Not Hispanic or Latino,English,Lab,PA,2-8-2-8,21.90554415,21.90554415,1,8
1,Oct-14,4,4,radial,0,0.15,R,1.1345,TRUE,0.15,4,8,Male,White,Not Hispanic or Latino,English,Lab,PA,2-8-2-8,21.90554415,21.90554415,1,8
1,Oct-14,4,5,linear,0.05,0,R,1.7018,FALSE,0.05,1,2,Male,White,Not Hispanic or Latino,English,Lab,PA,2-8-2-8,21.90554415,21.90554415,1,2
1,Oct-14,4,5,linear,0.05,0,R,1.3349,FALSE,0.05,3,2,Male,White,Not Hispanic or Latino,English,Lab,PA,2-8-2-8,21.90554415,21.90554415,1,2
1,Oct-14,4,5,linear,0,0.1,R,2.0518,TRUE,0.1,2,8,Male,White,Not Hispanic or Latino,English,Lab,PA,2-8-2-8,21.90554415,21.90554415,1,8
1,Oct-14,4,5,linear,0,0.1,R,1.5682,TRUE,0.1,4,8,Male,White,Not Hispanic or Latino,English,Lab,PA,2-8-2-8,21.90554415,21.90554415,1,8
1,Oct-14,4,6,radial,0,0.2,R,1.1846,TRUE,0.2,1,2,Male,White,Not Hispanic or Latino,English,Lab,PA,2-8-2-8,21.90554415,21.90554415,1,2
1,Oct-14,4,6,radial,0,0.2,R,1.3533,TRUE,0.2,3,2,Male,White,Not Hispanic or Latino,English,Lab,PA,2-8-2-8,21.90554415,21.90554415,1,2
1,Oct-14,4,6,radial,0,0.2,R,0.93416,TRUE,0.2,2,8,Male,White,Not Hispanic or Latino,English,Lab,PA,2-8-2-8,21.90554415,21.90554415,1,8
1,Oct-14,4,6,radial,0,0.2,R,0.79248,TRUE,0.2,4,8,Male,White,Not Hispanic or Latino,English,Lab,PA,2-8-2-8,21.90554415,21.90554415,1,8
1,Oct-14,4,7,radial,0,0.15,L,0.96784,FALSE,0.15,1,2,Male,White,Not Hispanic or Latino,English,Lab,PA,2-8-2-8,21.90554415,21.90554415,1,2
1,Oct-14,4,7,radial,0,0.15,R,1.6035,TRUE,0.15,3,2,Male,White,Not Hispanic or Latino,English,Lab,PA,2-8-2-8,21.90554415,21.90554415,1,2
1,Oct-14,4,7,radial,0.05,0,L,3.7202,TRUE,0.05,2,8,Male,White,Not Hispanic or Latino,English,Lab,PA,2-8-2-8,21.90554415,21.90554415,1,8
1,Oct-14,4,7,radial,0.05,0,R,3.2361,FALSE,0.05,4,8,Male,White,Not Hispanic or Latino,English,Lab,PA,2-8-2-8,21.90554415,21.90554415,1,8
1,Oct-14,4,8,linear,0,0.2,R,1.8853,TRUE,0.2,1,2,Male,White,Not Hispanic or Latino,English,Lab,PA,2-8-2-8,21.90554415,21.90554415,1,2
1,Oct-14,4,8,linear,0,0.2,R,0.96778,TRUE,0.2,3,2,Male,White,Not Hispanic or Latino,English,Lab,PA,2-8-2-8,21.90554415,21.90554415,1,2
1,Oct-14,4,8,linear,0.15,0,L,1.101,TRUE,0.15,2,8,Male,White,Not Hispanic or Latino,English,Lab,PA,2-8-2-8,21.90554415,21.90554415,1,8
1,Oct-14,4,8,linear,0.15,0,L,0.75513,TRUE,0.15,4,8,Male,White,Not Hispanic or Latino,English,Lab,PA,2-8-2-8,21.90554415,21.90554415,1,8
1,Oct-14,4,9,linear,0,0.15,L,1.1676,FALSE,0.15,1,2,Male,White,Not Hispanic or Latino,English,Lab,PA,2-8-2-8,21.90554415,21.90554415,1,2
1,Oct-14,4,9,linear,0,0.15,R,1.601,TRUE,0.15,3,2,Male,White,Not Hispanic or Latino,English,Lab,PA,2-8-2-8,21.90554415,21.90554415,1,2
1,Oct-14,4,9,radial,0,0.1,L,1.8016,FALSE,0.1,2,8,Male,White,Not Hispanic or Latino,English,Lab,PA,2-8-2-8,21.90554415,21.90554415,1,8
1,Oct-14,4,9,radial,0,0.1,R,2.5357,TRUE,0.1,4,8,Male,White,Not Hispanic or Latino,English,Lab,PA,2-8-2-8,21.90554415,21.90554415,1,8
1,Oct-14,4,10,linear,0,0.1,R,1.9349,TRUE,0.1,1,2,Male,White,Not Hispanic or Latino,English,Lab,PA,2-8-2-8,21.90554415,21.90554415,1,2
1,Oct-14,4,10,linear,0,0.1,L,1.5345,FALSE,0.1,3,2,Male,White,Not Hispanic or Latino,English,Lab,PA,2-8-2-8,21.90554415,21.90554415,1,2
1,Oct-14,4,10,radial,0,0.05,L,1.9684,FALSE,0.05,2,8,Male,White,Not Hispanic or Latino,English,Lab,PA,2-8-2-8,21.90554415,21.90554415,1,8
1,Oct-14,4,10,radial,0,0.05,R,1.1844,TRUE,0.05,4,8,Male,White,Not Hispanic or Latino,English,Lab,PA,2-8-2-8,21.90554415,21.90554415,1,8
1,Oct-14,4,11,radial,0.05,0,L,1.8351,TRUE,0.05,1,2,Male,White,Not Hispanic or Latino,English,Lab,PA,2-8-2-8,21.90554415,21.90554415,1,2
1,Oct-14,4,11,radial,0.05,0,L,2.7527,TRUE,0.05,3,2,Male,White,Not Hispanic or Latino,English,Lab,PA,2-8-2-8,21.90554415,21.90554415,1,2
1,Oct-14,4,11,radial,0.2,0,L,0.93455,TRUE,0.2,2,8,Male,White,Not Hispanic or Latino,English,Lab,PA,2-8-2-8,21.90554415,21.90554415,1,8
1,Oct-14,4,11,radial,0.2,0,L,1.0179,TRUE,0.2,4,8,Male,White,Not Hispanic or Latino,English,Lab,PA,2-8-2-8,21.90554415,21.90554415,1,8
1,Oct-14,4,12,linear,0,0.05,R,1.4016,TRUE,0.05,1,2,Male,White,Not Hispanic or Latino,English,Lab,PA,2-8-2-8,21.90554415,21.90554415,1,2
1,Oct-14,4,12,linear,0,0.05,R,2.2884,TRUE,0.05,3,2,Male,White,Not Hispanic or Latino,English,Lab,PA,2-8-2-8,21.90554415,21.90554415,1,2
1,Oct-14,4,12,linear,0.05,0,L,2.8885,TRUE,0.05,2,8,Male,White,Not Hispanic or Latino,English,Lab,PA,2-8-2-8,21.90554415,21.90554415,1,8
1,Oct-14,4,12,linear,0.05,0,L,2.7691,TRUE,0.05,4,8,Male,White,Not Hispanic or Latino,English,Lab,PA,2-8-2-8,21.90554415,21.90554415,1,8
1,Oct-14,4,13,radial,0.15,0,L,1.7512,TRUE,0.15,1,2,Male,White,Not Hispanic or Latino,English,Lab,PA,2-8-2-8,21.90554415,21.90554415,1,2
1,Oct-14,4,13,radial,0.15,0,L,1.8187,TRUE,0.15,3,2,Male,White,Not Hispanic or Latino,English,Lab,PA,2-8-2-8,21.90554415,21.90554415,1,2
1,Oct-14,4,13,linear,0,0.15,R,1.3756,TRUE,0.15,2,8,Male,White,Not Hispanic or Latino,English,Lab,PA,2-8-2-8,21.90554415,21.90554415,1,8
1,Oct-14,4,13,linear,0,0.15,R,2.5856,TRUE,0.15,4,8,Male,White,Not Hispanic or Latino,English,Lab,PA,2-8-2-8,21.90554415,21.90554415,1,8
1,Oct-14,4,14,linear,0.15,0,R,3.0691,FALSE,0.15,1,2,Male,White,Not Hispanic or Latino,English,Lab,PA,2-8-2-8,21.90554415,21.90554415,1,2
1,Oct-14,4,14,linear,0.15,0,L,0.96766,TRUE,0.15,3,2,Male,White,Not Hispanic or Latino,English,Lab,PA,2-8-2-8,21.90554415,21.90554415,1,2
1,Oct-14,4,14,linear,0,0.2,R,1.6014,TRUE,0.2,2,8,Male,White,Not Hispanic or Latino,English,Lab,PA,2-8-2-8,21.90554415,21.90554415,1,8
1,Oct-14,4,14,linear,0,0.2,R,0.88431,TRUE,0.2,4,8,Male,White,Not Hispanic or Latino,English,Lab,PA,2-8-2-8,21.90554415,21.90554415,1,8
1,Oct-14,4,15,radial,0,0.1,R,2.1204,TRUE,0.1,1,2,Male,White,Not Hispanic or Latino,English,Lab,PA,2-8-2-8,21.90554415,21.90554415,1,2
1,Oct-14,4,15,radial,0,0.1,L,1.4008,FALSE,0.1,3,2,Male,White,Not Hispanic or Latino,English,Lab,PA,2-8-2-8,21.90554415,21.90554415,1,2
1,Oct-14,4,15,linear,0.1,0,L,1.2511,TRUE,0.1,2,8,Male,White,Not Hispanic or Latino,English,Lab,PA,2-8-2-8,21.90554415,21.90554415,1,8
1,Oct-14,4,15,linear,0.1,0,L,0.96781,TRUE,0.1,4,8,Male,White,Not Hispanic or Latino,English,Lab,PA,2-8-2-8,21.90554415,21.90554415,1,8
1,Oct-14,4,16,radial,0.1,0,L,2.5859,TRUE,0.1,1,2,Male,White,Not Hispanic or Latino,English,Lab,PA,2-8-2-8,21.90554415,21.90554415,1,2
1,Oct-14,4,16,radial,0.1,0,L,2.3188,TRUE,0.1,3,2,Male,White,Not Hispanic or Latino,English,Lab,PA,2-8-2-8,21.90554415,21.90554415,1,2
1,Oct-14,4,16,linear,0,0.05,R,2.4764,TRUE,0.05,2,8,Male,White,Not Hispanic or Latino,English,Lab,PA,2-8-2-8,21.90554415,21.90554415,1,8
1,Oct-14,4,16,linear,0,0.05,R,1.7682,TRUE,0.05,4,8,Male,White,Not Hispanic or Latino,English,Lab,PA,2-8-2-8,21.90554415,21.90554415,1,8
1,Oct-14,5,1,radial,0.2,0,L,0.81775,TRUE,0.2,1,2,Male,White,Not Hispanic or Latino,English,Lab,PA,2-8-2-8,21.90554415,21.90554415,1,2
1,Oct-14,5,1,radial,0.2,0,L,1.1347,TRUE,0.2,3,2,Male,White,Not Hispanic or Latino,English,Lab,PA,2-8-2-8,21.90554415,21.90554415,1,2
1,Oct-14,5,1,linear,0.2,0,L,0.76737,TRUE,0.2,2,8,Male,White,Not Hispanic or Latino,English,Lab,PA,2-8-2-8,21.90554415,21.90554415,1,8
1,Oct-14,5,1,linear,0.2,0,L,0.93419,TRUE,0.2,4,8,Male,White,Not Hispanic or Latino,English,Lab,PA,2-8-2-8,21.90554415,21.90554415,1,8
1,Oct-14,5,2,linear,0.1,0,R,2.0029,FALSE,0.1,1,2,Male,White,Not Hispanic or Latino,English,Lab,PA,2-8-2-8,21.90554415,21.90554415,1,2
1,Oct-14,5,2,linear,0.1,0,R,1.2702,FALSE,0.1,3,2,Male,White,Not Hispanic or Latino,English,Lab,PA,2-8-2-8,21.90554415,21.90554415,1,2
1,Oct-14,5,2,radial,0.15,0,L,1.168,TRUE,0.15,2,8,Male,White,Not Hispanic or Latino,English,Lab,PA,2-8-2-8,21.90554415,21.90554415,1,8
1,Oct-14,5,2,radial,0.15,0,L,1.0675,TRUE,0.15,4,8,Male,White,Not Hispanic or Latino,English,Lab,PA,2-8-2-8,21.90554415,21.90554415,1,8
1,Oct-14,5,3,linear,0.2,0,L,0.90114,TRUE,0.2,1,2,Male,White,Not Hispanic or Latino,English,Lab,PA,2-8-2-8,21.90554415,21.90554415,1,2
1,Oct-14,5,3,linear,0.2,0,L,0.8176,TRUE,0.2,3,2,Male,White,Not Hispanic or Latino,English,Lab,PA,2-8-2-8,21.90554415,21.90554415,1,2
1,Oct-14,5,3,linear,0,0.1,L,1.2348,FALSE,0.1,2,8,Male,White,Not Hispanic or Latino,English,Lab,PA,2-8-2-8,21.90554415,21.90554415,1,8
1,Oct-14,5,3,linear,0,0.1,R,1.3011,TRUE,0.1,4,8,Male,White,Not Hispanic or Latino,English,Lab,PA,2-8-2-8,21.90554415,21.90554415,1,8
1,Oct-14,5,4,radial,0,0.05,R,1.2349,TRUE,0.05,1,2,Male,White,Not Hispanic or Latino,English,Lab,PA,2-8-2-8,21.90554415,21.90554415,1,2
1,Oct-14,5,4,radial,0,0.05,L,1.3177,FALSE,0.05,3,2,Male,White,Not Hispanic or Latino,English,Lab,PA,2-8-2-8,21.90554415,21.90554415,1,2
1,Oct-14,5,4,radial,0.1,0,L,1.8849,TRUE,0.1,2,8,Male,White,Not Hispanic or Latino,English,Lab,PA,2-8-2-8,21.90554415,21.90554415,1,8
1,Oct-14,5,4,radial,0.1,0,L,1.2847,TRUE,0.1,4,8,Male,White,Not Hispanic or Latino,English,Lab,PA,2-8-2-8,21.90554415,21.90554415,1,8
1,Oct-14,5,5,radial,0,0.2,R,1.4548,TRUE,0.2,1,2,Male,White,Not Hispanic or Latino,English,Lab,PA,2-8-2-8,21.90554415,21.90554415,1,2
1,Oct-14,5,5,radial,0,0.2,R,0.90088,TRUE,0.2,3,2,Male,White,Not Hispanic or Latino,English,Lab,PA,2-8-2-8,21.90554415,21.90554415,1,2
1,Oct-14,5,5,linear,0.15,0,L,1.3012,TRUE,0.15,2,8,Male,White,Not Hispanic or Latino,English,Lab,PA,2-8-2-8,21.90554415,21.90554415,1,8
1,Oct-14,5,5,linear,0.15,0,L,0.93407,TRUE,0.15,4,8,Male,White,Not Hispanic or Latino,English,Lab,PA,2-8-2-8,21.90554415,21.90554415,1,8
1,Oct-14,5,6,linear,0.05,0,L,1.735,TRUE,0.05,1,2,Male,White,Not Hispanic or Latino,English,Lab,PA,2-8-2-8,21.90554415,21.90554415,1,2
1,Oct-14,5,6,linear,0.05,0,R,1.5846,FALSE,0.05,3,2,Male,White,Not Hispanic or Latino,English,Lab,PA,2-8-2-8,21.90554415,21.90554415,1,2
1,Oct-14,5,6,radial,0,0.15,L,1.1177,FALSE,0.15,2,8,Male,White,Not Hispanic or Latino,English,Lab,PA,2-8-2-8,21.90554415,21.90554415,1,8
1,Oct-14,5,6,radial,0,0.15,R,1.235,TRUE,0.15,4,8,Male,White,Not Hispanic or Latino,English,Lab,PA,2-8-2-8,21.90554415,21.90554415,1,8
1,Oct-14,5,7,linear,0,0.2,R,2.1192,TRUE,0.2,1,2,Male,White,Not Hispanic or Latino,English,Lab,PA,2-8-2-8,21.90554415,21.90554415,1,2
1,Oct-14,5,7,linear,0,0.2,R,1.0509,TRUE,0.2,3,2,Male,White,Not Hispanic or Latino,English,Lab,PA,2-8-2-8,21.90554415,21.90554415,1,2
1,Oct-14,5,7,radial,0,0.2,R,0.91767,TRUE,0.2,2,8,Male,White,Not Hispanic or Latino,English,Lab,PA,2-8-2-8,21.90554415,21.90554415,1,8
1,Oct-14,5,7,radial,0,0.2,R,0.95087,TRUE,0.2,4,8,Male,White,Not Hispanic or Latino,English,Lab,PA,2-8-2-8,21.90554415,21.90554415,1,8
1,Oct-14,5,8,radial,0,0.15,R,1.2176,TRUE,0.15,1,2,Male,White,Not Hispanic or Latino,English,Lab,PA,2-8-2-8,21.90554415,21.90554415,1,2
1,Oct-14,5,8,radial,0,0.15,R,1.2697,TRUE,0.15,3,2,Male,White,Not Hispanic or Latino,English,Lab,PA,2-8-2-8,21.90554415,21.90554415,1,2
1,Oct-14,5,8,radial,0.05,0,L,3.72,TRUE,0.05,2,8,Male,White,Not Hispanic or Latino,English,Lab,PA,2-8-2-8,21.90554415,21.90554415,1,8
1,Oct-14,5,8,radial,0.05,0,R,2.6691,FALSE,0.05,4,8,Male,White,Not Hispanic or Latino,English,Lab,PA,2-8-2-8,21.90554415,21.90554415,1,8
1,Oct-14,5,9,radial,0.05,0,R,2.9192,FALSE,0.05,1,2,Male,White,Not Hispanic or Latino,English,Lab,PA,2-8-2-8,21.90554415,21.90554415,1,2
1,Oct-14,5,9,radial,0.05,0,L,1.7684,TRUE,0.05,3,2,Male,White,Not Hispanic or Latino,English,Lab,PA,2-8-2-8,21.90554415,21.90554415,1,2
1,Oct-14,5,9,linear,0.05,0,L,1.2011,TRUE,0.05,2,8,Male,White,Not Hispanic or Latino,English,Lab,PA,2-8-2-8,21.90554415,21.90554415,1,8
1,Oct-14,5,9,linear,0.05,0,L,1.0008,TRUE,0.05,4,8,Male,White,Not Hispanic or Latino,English,Lab,PA,2-8-2-8,21.90554415,21.90554415,1,8
1,Oct-14,5,10,radial,0.15,0,L,1.135,TRUE,0.15,1,2,Male,White,Not Hispanic or Latino,English,Lab,PA,2-8-2-8,21.90554415,21.90554415,1,2
1,Oct-14,5,10,radial,0.15,0,L,2.5307,TRUE,0.15,3,2,Male,White,Not Hispanic or Latino,English,Lab,PA,2-8-2-8,21.90554415,21.90554415,1,2
1,Oct-14,5,10,linear,0,0.15,R,2.5082,TRUE,0.15,2,8,Male,White,Not Hispanic or Latino,English,Lab,PA,2-8-2-8,21.90554415,21.90554415,1,8
1,Oct-14,5,10,linear,0,0.15,R,1.6012,TRUE,0.15,4,8,Male,White,Not Hispanic or Latino,English,Lab,PA,2-8-2-8,21.90554415,21.90554415,1,8
1,Oct-14,5,11,radial,0,0.1,L,2.9196,FALSE,0.1,1,2,Male,White,Not Hispanic or Latino,English,Lab,PA,2-8-2-8,21.90554415,21.90554415,1,2
1,Oct-14,5,11,radial,0,0.1,L,1.3352,FALSE,0.1,3,2,Male,White,Not Hispanic or Latino,English,Lab,PA,2-8-2-8,21.90554415,21.90554415,1,2
1,Oct-14,5,11,linear,0,0.2,R,1.0915,TRUE,0.2,2,8,Male,White,Not Hispanic or Latino,English,Lab,PA,2-8-2-8,21.90554415,21.90554415,1,8
1,Oct-14,5,11,linear,0,0.2,R,1.3392,TRUE,0.2,4,8,Male,White,Not Hispanic or Latino,English,Lab,PA,2-8-2-8,21.90554415,21.90554415,1,8
1,Oct-14,5,12,radial,0.1,0,L,1.8184,TRUE,0.1,1,2,Male,White,Not Hispanic or Latino,English,Lab,PA,2-8-2-8,21.90554415,21.90554415,1,2
1,Oct-14,5,12,radial,0.1,0,R,1.3176,FALSE,0.1,3,2,Male,White,Not Hispanic or Latino,English,Lab,PA,2-8-2-8,21.90554415,21.90554415,1,2
1,Oct-14,5,12,radial,0,0.1,R,1.5347,TRUE,0.1,2,8,Male,White,Not Hispanic or Latino,English,Lab,PA,2-8-2-8,21.90554415,21.90554415,1,8
1,Oct-14,5,12,radial,0,0.1,R,NA,TRUE,0.1,4,8,Male,White,Not Hispanic or Latino,English,Lab,PA,2-8-2-8,21.90554415,21.90554415,1,8
1,Oct-14,5,13,linear,0,0.15,R,1.6184,TRUE,0.15,1,2,Male,White,Not Hispanic or Latino,English,Lab,PA,2-8-2-8,21.90554415,21.90554415,1,2
1,Oct-14,5,13,linear,0,0.15,R,1.0178,TRUE,0.15,3,2,Male,White,Not Hispanic or Latino,English,Lab,PA,2-8-2-8,21.90554415,21.90554415,1,2
1,Oct-14,5,13,radial,0,0.05,R,2.0354,TRUE,0.05,2,8,Male,White,Not Hispanic or Latino,English,Lab,PA,2-8-2-8,21.90554415,21.90554415,1,8
1,Oct-14,5,13,radial,0,0.05,R,1.2257,TRUE,0.05,4,8,Male,White,Not Hispanic or Latino,English,Lab,PA,2-8-2-8,21.90554415,21.90554415,1,8
1,Oct-14,5,14,linear,0,0.1,R,2.4521,TRUE,0.1,1,2,Male,White,Not Hispanic or Latino,English,Lab,PA,2-8-2-8,21.90554415,21.90554415,1,2
1,Oct-14,5,14,linear,0,0.1,R,1.4343,TRUE,0.1,3,2,Male,White,Not Hispanic or Latino,English,Lab,PA,2-8-2-8,21.90554415,21.90554415,1,2
1,Oct-14,5,14,linear,0.1,0,L,1.0175,TRUE,0.1,2,8,Male,White,Not Hispanic or Latino,English,Lab,PA,2-8-2-8,21.90554415,21.90554415,1,8
1,Oct-14,5,14,linear,0.1,0,L,1.3179,TRUE,0.1,4,8,Male,White,Not Hispanic or Latino,English,Lab,PA,2-8-2-8,21.90554415,21.90554415,1,8
1,Oct-14,5,15,linear,0,0.05,R,2.1519,TRUE,0.05,1,2,Male,White,Not Hispanic or Latino,English,Lab,PA,2-8-2-8,21.90554415,21.90554415,1,2
1,Oct-14,5,15,linear,0,0.05,R,1.902,TRUE,0.05,3,2,Male,White,Not Hispanic or Latino,English,Lab,PA,2-8-2-8,21.90554415,21.90554415,1,2
1,Oct-14,5,15,radial,0.2,0,L,0.68814,TRUE,0.2,2,8,Male,White,Not Hispanic or Latino,English,Lab,PA,2-8-2-8,21.90554415,21.90554415,1,8
1,Oct-14,5,15,radial,0.2,0,L,0.91764,TRUE,0.2,4,8,Male,White,Not Hispanic or Latino,English,Lab,PA,2-8-2-8,21.90554415,21.90554415,1,8
1,Oct-14,5,16,linear,0.15,0,L,0.86788,TRUE,0.15,1,2,Male,White,Not Hispanic or Latino,English,Lab,PA,2-8-2-8,21.90554415,21.90554415,1,2
1,Oct-14,5,16,linear,0.15,0,L,1.0676,TRUE,0.15,3,2,Male,White,Not Hispanic or Latino,English,Lab,PA,2-8-2-8,21.90554415,21.90554415,1,2
1,Oct-14,5,16,linear,0,0.05,R,1.6682,TRUE,0.05,2,8,Male,White,Not Hispanic or Latino,English,Lab,PA,2-8-2-8,21.90554415,21.90554415,1,8
1,Oct-14,5,16,linear,0,0.05,R,1.4845,TRUE,0.05,4,8,Male,White,Not Hispanic or Latino,English,Lab,PA,2-8-2-8,21.90554415,21.90554415,1,8
2,Nov-14,1,1,linear,0.1,0,L,NA,TRUE,0.1,1,2,Male,Asian,Not Hispanic or Latino,English,Lab,PA,2-8-8-2,20.678987,20.678987,2,2
2,Nov-14,1,1,linear,0.1,0,L,1.9181,TRUE,0.1,4,2,Male,Asian,Not Hispanic or Latino,English,Lab,PA,2-8-8-2,20.678987,20.678987,2,2
2,Nov-14,1,1,radial,0.15,0,L,1.2678,TRUE,0.15,2,8,Male,Asian,Not Hispanic or Latino,English,Lab,PA,2-8-8-2,20.678987,20.678987,2,8
2,Nov-14,1,1,radial,0.15,0,L,1.4514,TRUE,0.15,3,8,Male,Asian,Not Hispanic or Latino,English,Lab,PA,2-8-8-2,20.678987,20.678987,2,8
2,Nov-14,1,2,linear,0.2,0,L,2.069,TRUE,0.2,1,2,Male,Asian,Not Hispanic or Latino,English,Lab,PA,2-8-8-2,20.678987,20.678987,2,2
2,Nov-14,1,2,linear,0.2,0,L,0.734,TRUE,0.2,4,2,Male,Asian,Not Hispanic or Latino,English,Lab,PA,2-8-8-2,20.678987,20.678987,2,2
2,Nov-14,1,2,radial,0.1,0,R,1.0247,FALSE,0.1,2,8,Male,Asian,Not Hispanic or Latino,English,Lab,PA,2-8-8-2,20.678987,20.678987,2,8
2,Nov-14,1,2,radial,0.1,0,R,2.1018,FALSE,0.1,3,8,Male,Asian,Not Hispanic or Latino,English,Lab,PA,2-8-8-2,20.678987,20.678987,2,8
2,Nov-14,1,3,radial,0.2,0,L,2.0518,TRUE,0.2,1,2,Male,Asian,Not Hispanic or Latino,English,Lab,PA,2-8-8-2,20.678987,20.678987,2,2
2,Nov-14,1,3,radial,0.2,0,L,0.86756,TRUE,0.2,4,2,Male,Asian,Not Hispanic or Latino,English,Lab,PA,2-8-8-2,20.678987,20.678987,2,2
2,Nov-14,1,3,radial,0,0.15,R,1.5014,TRUE,0.15,2,8,Male,Asian,Not Hispanic or Latino,English,Lab,PA,2-8-8-2,20.678987,20.678987,2,8
2,Nov-14,1,3,radial,0,0.15,R,1.5513,TRUE,0.15,3,8,Male,Asian,Not Hispanic or Latino,English,Lab,PA,2-8-8-2,20.678987,20.678987,2,8
2,Nov-14,1,4,linear,0.05,0,L,2.3186,TRUE,0.05,1,2,Male,Asian,Not Hispanic or Latino,English,Lab,PA,2-8-8-2,20.678987,20.678987,2,2
2,Nov-14,1,4,linear,0.05,0,L,2.6024,TRUE,0.05,4,2,Male,Asian,Not Hispanic or Latino,English,Lab,PA,2-8-8-2,20.678987,20.678987,2,2
2,Nov-14,1,4,radial,0,0.2,R,1.1213,TRUE,0.2,2,8,Male,Asian,Not Hispanic or Latino,English,Lab,PA,2-8-8-2,20.678987,20.678987,2,8
2,Nov-14,1,4,radial,0,0.2,R,2.5357,TRUE,0.2,3,8,Male,Asian,Not Hispanic or Latino,English,Lab,PA,2-8-8-2,20.678987,20.678987,2,8
2,Nov-14,1,5,linear,0,0.2,L,4.8548,FALSE,0.2,1,2,Male,Asian,Not Hispanic or Latino,English,Lab,PA,2-8-8-2,20.678987,20.678987,2,2
2,Nov-14,1,5,linear,0,0.2,R,0.93424,TRUE,0.2,4,2,Male,Asian,Not Hispanic or Latino,English,Lab,PA,2-8-8-2,20.678987,20.678987,2,2
2,Nov-14,1,5,radial,0.05,0,R,2.5356,FALSE,0.05,2,8,Male,Asian,Not Hispanic or Latino,English,Lab,PA,2-8-8-2,20.678987,20.678987,2,8
2,Nov-14,1,5,radial,0.05,0,L,2.1019,TRUE,0.05,3,8,Male,Asian,Not Hispanic or Latino,English,Lab,PA,2-8-8-2,20.678987,20.678987,2,8
2,Nov-14,1,6,radial,0,0.05,L,2.6022,FALSE,0.05,1,2,Male,Asian,Not Hispanic or Latino,English,Lab,PA,2-8-8-2,20.678987,20.678987,2,2
2,Nov-14,1,6,radial,0,0.05,L,2.7023,FALSE,0.05,4,2,Male,Asian,Not Hispanic or Latino,English,Lab,PA,2-8-8-2,20.678987,20.678987,2,2
2,Nov-14,1,6,linear,0.2,0,L,1.5179,TRUE,0.2,2,8,Male,Asian,Not Hispanic or Latino,English,Lab,PA,2-8-8-2,20.678987,20.678987,2,8
2,Nov-14,1,6,linear,0.2,0,L,0.75089,TRUE,0.2,3,8,Male,Asian,Not Hispanic or Latino,English,Lab,PA,2-8-8-2,20.678987,20.678987,2,8
2,Nov-14,1,7,radial,0,0.2,R,2.6208,TRUE,0.2,1,2,Male,Asian,Not Hispanic or Latino,English,Lab,PA,2-8-8-2,20.678987,20.678987,2,2
2,Nov-14,1,7,radial,0,0.2,R,1.0514,TRUE,0.2,4,2,Male,Asian,Not Hispanic or Latino,English,Lab,PA,2-8-8-2,20.678987,20.678987,2,2
2,Nov-14,1,7,linear,0,0.1,R,2.819,TRUE,0.1,2,8,Male,Asian,Not Hispanic or Latino,English,Lab,PA,2-8-8-2,20.678987,20.678987,2,8
2,Nov-14,1,7,linear,0,0.1,R,0.96769,TRUE,0.1,3,8,Male,Asian,Not Hispanic or Latino,English,Lab,PA,2-8-8-2,20.678987,20.678987,2,8
2,Nov-14,1,8,linear,0,0.15,R,1.9017,TRUE,0.15,1,2,Male,Asian,Not Hispanic or Latino,English,Lab,PA,2-8-8-2,20.678987,20.678987,2,2
2,Nov-14,1,8,linear,0,0.15,R,2.4855,TRUE,0.15,4,2,Male,Asian,Not Hispanic or Latino,English,Lab,PA,2-8-8-2,20.678987,20.678987,2,2
2,Nov-14,1,8,linear,0.15,0,R,2.4021,FALSE,0.15,2,8,Male,Asian,Not Hispanic or Latino,English,Lab,PA,2-8-8-2,20.678987,20.678987,2,8
2,Nov-14,1,8,linear,0.15,0,L,0.71743,TRUE,0.15,3,8,Male,Asian,Not Hispanic or Latino,English,Lab,PA,2-8-8-2,20.678987,20.678987,2,8
2,Nov-14,1,9,radial,0,0.15,L,2.9868,FALSE,0.15,1,2,Male,Asian,Not Hispanic or Latino,English,Lab,PA,2-8-8-2,20.678987,20.678987,2,2
2,Nov-14,1,9,radial,0,0.15,R,1.1344,TRUE,0.15,4,2,Male,Asian,Not Hispanic or Latino,English,Lab,PA,2-8-8-2,20.678987,20.678987,2,2
2,Nov-14,1,9,radial,0,0.1,R,1.2009,TRUE,0.1,2,8,Male,Asian,Not Hispanic or Latino,English,Lab,PA,2-8-8-2,20.678987,20.678987,2,8
2,Nov-14,1,9,radial,0,0.1,R,1.139,TRUE,0.1,3,8,Male,Asian,Not Hispanic or Latino,English,Lab,PA,2-8-8-2,20.678987,20.678987,2,8
2,Nov-14,1,10,linear,0,0.1,R,4.9373,TRUE,0.1,1,2,Male,Asian,Not Hispanic or Latino,English,Lab,PA,2-8-8-2,20.678987,20.678987,2,2
2,Nov-14,1,10,linear,0,0.1,R,2.4188,TRUE,0.1,4,2,Male,Asian,Not Hispanic or Latino,English,Lab,PA,2-8-8-2,20.678987,20.678987,2,2
2,Nov-14,1,10,linear,0.05,0,L,2.5022,TRUE,0.05,2,8,Male,Asian,Not Hispanic or Latino,English,Lab,PA,2-8-8-2,20.678987,20.678987,2,8
2,Nov-14,1,10,linear,0.05,0,L,1.4347,TRUE,0.05,3,8,Male,Asian,Not Hispanic or Latino,English,Lab,PA,2-8-8-2,20.678987,20.678987,2,8
2,Nov-14,1,11,radial,0.05,0,R,3.2694,FALSE,0.05,1,2,Male,Asian,Not Hispanic or Latino,English,Lab,PA,2-8-8-2,20.678987,20.678987,2,2
2,Nov-14,1,11,radial,0.05,0,L,2.4356,TRUE,0.05,4,2,Male,Asian,Not Hispanic or Latino,English,Lab,PA,2-8-8-2,20.678987,20.678987,2,2
2,Nov-14,1,11,radial,0,0.05,R,2.6358,TRUE,0.05,2,8,Male,Asian,Not Hispanic or Latino,English,Lab,PA,2-8-8-2,20.678987,20.678987,2,8
2,Nov-14,1,11,radial,0,0.05,R,1.2011,TRUE,0.05,3,8,Male,Asian,Not Hispanic or Latino,English,Lab,PA,2-8-8-2,20.678987,20.678987,2,8
2,Nov-14,1,12,linear,0,0.05,L,5.0876,FALSE,0.05,1,2,Male,Asian,Not Hispanic or Latino,English,Lab,PA,2-8-8-2,20.678987,20.678987,2,2
2,Nov-14,1,12,linear,0,0.05,R,2.4022,TRUE,0.05,4,2,Male,Asian,Not Hispanic or Latino,English,Lab,PA,2-8-8-2,20.678987,20.678987,2,2
2,Nov-14,1,12,radial,0.2,0,L,0.76736,TRUE,0.2,2,8,Male,Asian,Not Hispanic or Latino,English,Lab,PA,2-8-8-2,20.678987,20.678987,2,8
2,Nov-14,1,12,radial,0.2,0,L,0.83414,TRUE,0.2,3,8,Male,Asian,Not Hispanic or Latino,English,Lab,PA,2-8-8-2,20.678987,20.678987,2,8
2,Nov-14,1,13,radial,0.15,0,L,4.604,TRUE,0.15,1,2,Male,Asian,Not Hispanic or Latino,English,Lab,PA,2-8-8-2,20.678987,20.678987,2,2
2,Nov-14,1,13,radial,0.15,0,L,0.78415,TRUE,0.15,4,2,Male,Asian,Not Hispanic or Latino,English,Lab,PA,2-8-8-2,20.678987,20.678987,2,2
2,Nov-14,1,13,linear,0,0.15,R,1.7182,TRUE,0.15,2,8,Male,Asian,Not Hispanic or Latino,English,Lab,PA,2-8-8-2,20.678987,20.678987,2,8
2,Nov-14,1,13,linear,0,0.15,R,1.101,TRUE,0.15,3,8,Male,Asian,Not Hispanic or Latino,English,Lab,PA,2-8-8-2,20.678987,20.678987,2,8
2,Nov-14,1,14,linear,0.15,0,L,3.3363,TRUE,0.15,1,2,Male,Asian,Not Hispanic or Latino,English,Lab,PA,2-8-8-2,20.678987,20.678987,2,2
2,Nov-14,1,14,linear,0.15,0,L,0.7508,TRUE,0.15,4,2,Male,Asian,Not Hispanic or Latino,English,Lab,PA,2-8-8-2,20.678987,20.678987,2,2
2,Nov-14,1,14,linear,0,0.2,R,1.1508,TRUE,0.2,2,8,Male,Asian,Not Hispanic or Latino,English,Lab,PA,2-8-8-2,20.678987,20.678987,2,8
2,Nov-14,1,14,linear,0,0.2,R,0.9023,TRUE,0.2,3,8,Male,Asian,Not Hispanic or Latino,English,Lab,PA,2-8-8-2,20.678987,20.678987,2,8
2,Nov-14,1,15,radial,0,0.1,L,NA,FALSE,0.1,1,2,Male,Asian,Not Hispanic or Latino,English,Lab,PA,2-8-8-2,20.678987,20.678987,2,2
2,Nov-14,1,15,radial,0,0.1,R,1.2405,TRUE,0.1,4,2,Male,Asian,Not Hispanic or Latino,English,Lab,PA,2-8-8-2,20.678987,20.678987,2,2
2,Nov-14,1,15,linear,0.1,0,R,2.0367,FALSE,0.1,2,8,Male,Asian,Not Hispanic or Latino,English,Lab,PA,2-8-8-2,20.678987,20.678987,2,8
2,Nov-14,1,15,linear,0.1,0,L,1.0009,TRUE,0.1,3,8,Male,Asian,Not Hispanic or Latino,English,Lab,PA,2-8-8-2,20.678987,20.678987,2,8
2,Nov-14,1,16,radial,0.1,0,R,4.0536,FALSE,0.1,1,2,Male,Asian,Not Hispanic or Latino,English,Lab,PA,2-8-8-2,20.678987,20.678987,2,2
2,Nov-14,1,16,radial,0.1,0,L,2.3854,TRUE,0.1,4,2,Male,Asian,Not Hispanic or Latino,English,Lab,PA,2-8-8-2,20.678987,20.678987,2,2
2,Nov-14,1,16,linear,0,0.05,R,2.2856,TRUE,0.05,2,8,Male,Asian,Not Hispanic or Latino,English,Lab,PA,2-8-8-2,20.678987,20.678987,2,8
2,Nov-14,1,16,linear,0,0.05,R,1.2749,TRUE,0.05,3,8,Male,Asian,Not Hispanic or Latino,English,Lab,PA,2-8-8-2,20.678987,20.678987,2,8
2,Nov-14,2,1,radial,0.2,0,L,1.4516,TRUE,0.2,1,2,Male,Asian,Not Hispanic or Latino,English,Lab,PA,2-8-8-2,20.678987,20.678987,2,2
2,Nov-14,2,1,radial,0.2,0,L,0.66737,TRUE,0.2,4,2,Male,Asian,Not Hispanic or Latino,English,Lab,PA,2-8-8-2,20.678987,20.678987,2,2
2,Nov-14,2,1,linear,0.2,0,L,0.81758,TRUE,0.2,2,8,Male,Asian,Not Hispanic or Latino,English,Lab,PA,2-8-8-2,20.678987,20.678987,2,8
2,Nov-14,2,1,linear,0.2,0,L,0.61732,TRUE,0.2,3,8,Male,Asian,Not Hispanic or Latino,English,Lab,PA,2-8-8-2,20.678987,20.678987,2,8
2,Nov-14,2,2,linear,0.1,0,L,3.1531,TRUE,0.1,1,2,Male,Asian,Not Hispanic or Latino,English,Lab,PA,2-8-8-2,20.678987,20.678987,2,2
2,Nov-14,2,2,linear,0.1,0,R,2.5689,FALSE,0.1,4,2,Male,Asian,Not Hispanic or Latino,English,Lab,PA,2-8-8-2,20.678987,20.678987,2,2
2,Nov-14,2,2,radial,0.15,0,L,1.2176,TRUE,0.15,2,8,Male,Asian,Not Hispanic or Latino,English,Lab,PA,2-8-8-2,20.678987,20.678987,2,8
2,Nov-14,2,2,radial,0.15,0,L,1.1885,TRUE,0.15,3,8,Male,Asian,Not Hispanic or Latino,English,Lab,PA,2-8-8-2,20.678987,20.678987,2,8
2,Nov-14,2,3,linear,0.2,0,L,2.4855,TRUE,0.2,1,2,Male,Asian,Not Hispanic or Latino,English,Lab,PA,2-8-8-2,20.678987,20.678987,2,2
2,Nov-14,2,3,linear,0.2,0,L,0.85096,TRUE,0.2,4,2,Male,Asian,Not Hispanic or Latino,English,Lab,PA,2-8-8-2,20.678987,20.678987,2,2
2,Nov-14,2,3,linear,0,0.1,R,3.5364,TRUE,0.1,2,8,Male,Asian,Not Hispanic or Latino,English,Lab,PA,2-8-8-2,20.678987,20.678987,2,8
2,Nov-14,2,3,linear,0,0.1,R,1.418,TRUE,0.1,3,8,Male,Asian,Not Hispanic or Latino,English,Lab,PA,2-8-8-2,20.678987,20.678987,2,8
2,Nov-14,2,4,linear,0.05,0,R,4.5871,FALSE,0.05,1,2,Male,Asian,Not Hispanic or Latino,English,Lab,PA,2-8-8-2,20.678987,20.678987,2,2
2,Nov-14,2,4,linear,0.05,0,R,2.2853,FALSE,0.05,4,2,Male,Asian,Not Hispanic or Latino,English,Lab,PA,2-8-8-2,20.678987,20.678987,2,2
2,Nov-14,2,4,radial,0.1,0,L,1.5348,TRUE,0.1,2,8,Male,Asian,Not Hispanic or Latino,English,Lab,PA,2-8-8-2,20.678987,20.678987,2,8
2,Nov-14,2,4,radial,0.1,0,L,1.1011,TRUE,0.1,3,8,Male,Asian,Not Hispanic or Latino,English,Lab,PA,2-8-8-2,20.678987,20.678987,2,8
2,Nov-14,2,5,linear,0,0.2,R,3.3532,TRUE,0.2,1,2,Male,Asian,Not Hispanic or Latino,English,Lab,PA,2-8-8-2,20.678987,20.678987,2,2
2,Nov-14,2,5,linear,0,0.2,R,0.78394,TRUE,0.2,4,2,Male,Asian,Not Hispanic or Latino,English,Lab,PA,2-8-8-2,20.678987,20.678987,2,2
2,Nov-14,2,5,radial,0,0.15,L,1.106,FALSE,0.15,2,8,Male,Asian,Not Hispanic or Latino,English,Lab,PA,2-8-8-2,20.678987,20.678987,2,8
2,Nov-14,2,5,radial,0,0.15,L,0.9194,FALSE,0.15,3,8,Male,Asian,Not Hispanic or Latino,English,Lab,PA,2-8-8-2,20.678987,20.678987,2,8
2,Nov-14,2,6,radial,0,0.05,L,3.4028,FALSE,0.05,1,2,Male,Asian,Not Hispanic or Latino,English,Lab,PA,2-8-8-2,20.678987,20.678987,2,2
2,Nov-14,2,6,radial,0,0.05,R,1.2612,TRUE,0.05,4,2,Male,Asian,Not Hispanic or Latino,English,Lab,PA,2-8-8-2,20.678987,20.678987,2,2
2,Nov-14,2,6,linear,0.15,0,L,1.1896,TRUE,0.15,2,8,Male,Asian,Not Hispanic or Latino,English,Lab,PA,2-8-8-2,20.678987,20.678987,2,8
2,Nov-14,2,6,linear,0.15,0,L,0.9675,TRUE,0.15,3,8,Male,Asian,Not Hispanic or Latino,English,Lab,PA,2-8-8-2,20.678987,20.678987,2,8
2,Nov-14,2,7,radial,0,0.2,R,2.2358,TRUE,0.2,1,2,Male,Asian,Not Hispanic or Latino,English,Lab,PA,2-8-8-2,20.678987,20.678987,2,2
2,Nov-14,2,7,radial,0,0.2,R,1.2412,TRUE,0.2,4,2,Male,Asian,Not Hispanic or Latino,English,Lab,PA,2-8-8-2,20.678987,20.678987,2,2
2,Nov-14,2,7,radial,0,0.2,R,0.99233,TRUE,0.2,2,8,Male,Asian,Not Hispanic or Latino,English,Lab,PA,2-8-8-2,20.678987,20.678987,2,8
2,Nov-14,2,7,radial,0,0.2,R,1.0342,TRUE,0.2,3,8,Male,Asian,Not Hispanic or Latino,English,Lab,PA,2-8-8-2,20.678987,20.678987,2,8
2,Nov-14,2,8,linear,0,0.15,R,2.3858,TRUE,0.15,1,2,Male,Asian,Not Hispanic or Latino,English,Lab,PA,2-8-8-2,20.678987,20.678987,2,2
2,Nov-14,2,8,linear,0,0.15,R,0.81743,TRUE,0.15,4,2,Male,Asian,Not Hispanic or Latino,English,Lab,PA,2-8-8-2,20.678987,20.678987,2,2
2,Nov-14,2,8,radial,0.05,0,R,1.4016,FALSE,0.05,2,8,Male,Asian,Not Hispanic or Latino,English,Lab,PA,2-8-8-2,20.678987,20.678987,2,8
2,Nov-14,2,8,radial,0.05,0,L,1.1752,TRUE,0.05,3,8,Male,Asian,Not Hispanic or Latino,English,Lab,PA,2-8-8-2,20.678987,20.678987,2,8
2,Nov-14,2,9,linear,0,0.1,R,3.2532,TRUE,0.1,1,2,Male,Asian,Not Hispanic or Latino,English,Lab,PA,2-8-8-2,20.678987,20.678987,2,2
2,Nov-14,2,9,linear,0,0.1,R,1.0198,TRUE,0.1,4,2,Male,Asian,Not Hispanic or Latino,English,Lab,PA,2-8-8-2,20.678987,20.678987,2,2
2,Nov-14,2,9,radial,0,0.1,R,1.5179,TRUE,0.1,2,8,Male,Asian,Not Hispanic or Latino,English,Lab,PA,2-8-8-2,20.678987,20.678987,2,8
2,Nov-14,2,9,radial,0,0.1,R,1.1074,TRUE,0.1,3,8,Male,Asian,Not Hispanic or Latino,English,Lab,PA,2-8-8-2,20.678987,20.678987,2,8
2,Nov-14,2,10,radial,0,0.15,R,1.418,TRUE,0.15,1,2,Male,Asian,Not Hispanic or Latino,English,Lab,PA,2-8-8-2,20.678987,20.678987,2,2
2,Nov-14,2,10,radial,0,0.15,R,1.0357,TRUE,0.15,4,2,Male,Asian,Not Hispanic or Latino,English,Lab,PA,2-8-8-2,20.678987,20.678987,2,2
2,Nov-14,2,10,linear,0.05,0,L,2.5523,TRUE,0.05,2,8,Male,Asian,Not Hispanic or Latino,English,Lab,PA,2-8-8-2,20.678987,20.678987,2,8
2,Nov-14,2,10,linear,0.05,0,R,1.2067,FALSE,0.05,3,8,Male,Asian,Not Hispanic or Latino,English,Lab,PA,2-8-8-2,20.678987,20.678987,2,8
2,Nov-14,2,11,radial,0.05,0,L,2.453,TRUE,0.05,1,2,Male,Asian,Not Hispanic or Latino,English,Lab,PA,2-8-8-2,20.678987,20.678987,2,2
2,Nov-14,2,11,radial,0.05,0,L,3.3531,TRUE,0.05,4,2,Male,Asian,Not Hispanic or Latino,English,Lab,PA,2-8-8-2,20.678987,20.678987,2,2
2,Nov-14,2,11,radial,0,0.05,L,1.1342,FALSE,0.05,2,8,Male,Asian,Not Hispanic or Latino,English,Lab,PA,2-8-8-2,20.678987,20.678987,2,8
2,Nov-14,2,11,radial,0,0.05,L,0.53387,FALSE,0.05,3,8,Male,Asian,Not Hispanic or Latino,English,Lab,PA,2-8-8-2,20.678987,20.678987,2,8
2,Nov-14,2,12,radial,0.15,0,L,1.6347,TRUE,0.15,1,2,Male,Asian,Not Hispanic or Latino,English,Lab,PA,2-8-8-2,20.678987,20.678987,2,2
2,Nov-14,2,12,radial,0.15,0,L,0.71731,TRUE,0.15,4,2,Male,Asian,Not Hispanic or Latino,English,Lab,PA,2-8-8-2,20.678987,20.678987,2,2
2,Nov-14,2,12,linear,0,0.15,R,2.5524,TRUE,0.15,2,8,Male,Asian,Not Hispanic or Latino,English,Lab,PA,2-8-8-2,20.678987,20.678987,2,8
2,Nov-14,2,12,linear,0,0.15,R,2.2356,TRUE,0.15,3,8,Male,Asian,Not Hispanic or Latino,English,Lab,PA,2-8-8-2,20.678987,20.678987,2,8
2,Nov-14,2,13,linear,0,0.05,R,3.6034,TRUE,0.05,1,2,Male,Asian,Not Hispanic or Latino,English,Lab,PA,2-8-8-2,20.678987,20.678987,2,2
2,Nov-14,2,13,linear,0,0.05,R,1.0573,TRUE,0.05,4,2,Male,Asian,Not Hispanic or Latino,English,Lab,PA,2-8-8-2,20.678987,20.678987,2,2
2,Nov-14,2,13,linear,0,0.2,R,0.85675,TRUE,0.2,2,8,Male,Asian,Not Hispanic or Latino,English,Lab,PA,2-8-8-2,20.678987,20.678987,2,8
2,Nov-14,2,13,linear,0,0.2,R,0.91764,TRUE,0.2,3,8,Male,Asian,Not Hispanic or Latino,English,Lab,PA,2-8-8-2,20.678987,20.678987,2,8
2,Nov-14,2,14,radial,0,0.1,R,2.0425,TRUE,0.1,1,2,Male,Asian,Not Hispanic or Latino,English,Lab,PA,2-8-8-2,20.678987,20.678987,2,2
2,Nov-14,2,14,radial,0,0.1,R,1.2344,TRUE,0.1,4,2,Male,Asian,Not Hispanic or Latino,English,Lab,PA,2-8-8-2,20.678987,20.678987,2,2
2,Nov-14,2,14,linear,0.1,0,R,2.5519,FALSE,0.1,2,8,Male,Asian,Not Hispanic or Latino,English,Lab,PA,2-8-8-2,20.678987,20.678987,2,8
2,Nov-14,2,14,linear,0.1,0,L,0.7675,TRUE,0.1,3,8,Male,Asian,Not Hispanic or Latino,English,Lab,PA,2-8-8-2,20.678987,20.678987,2,8
2,Nov-14,2,15,radial,0.1,0,L,1.8513,TRUE,0.1,1,2,Male,Asian,Not Hispanic or Latino,English,Lab,PA,2-8-8-2,20.678987,20.678987,2,2
2,Nov-14,2,15,radial,0.1,0,L,2.4188,TRUE,0.1,4,2,Male,Asian,Not Hispanic or Latino,English,Lab,PA,2-8-8-2,20.678987,20.678987,2,2
2,Nov-14,2,15,radial,0.2,0,L,0.81756,TRUE,0.2,2,8,Male,Asian,Not Hispanic or Latino,English,Lab,PA,2-8-8-2,20.678987,20.678987,2,8
2,Nov-14,2,15,radial,0.2,0,L,0.73411,TRUE,0.2,3,8,Male,Asian,Not Hispanic or Latino,English,Lab,PA,2-8-8-2,20.678987,20.678987,2,8
2,Nov-14,2,16,linear,0.15,0,L,2.5737,TRUE,0.15,1,2,Male,Asian,Not Hispanic or Latino,English,Lab,PA,2-8-8-2,20.678987,20.678987,2,2
2,Nov-14,2,16,linear,0.15,0,L,0.7843,TRUE,0.15,4,2,Male,Asian,Not Hispanic or Latino,English,Lab,PA,2-8-8-2,20.678987,20.678987,2,2
2,Nov-14,2,16,linear,0,0.05,R,1.4846,TRUE,0.05,2,8,Male,Asian,Not Hispanic or Latino,English,Lab,PA,2-8-8-2,20.678987,20.678987,2,8
2,Nov-14,2,16,linear,0,0.05,R,2.6188,TRUE,0.05,3,8,Male,Asian,Not Hispanic or Latino,English,Lab,PA,2-8-8-2,20.678987,20.678987,2,8
2,Nov-14,3,1,radial,0.2,0,L,0.9842,TRUE,0.2,1,2,Male,Asian,Not Hispanic or Latino,English,Lab,PA,2-8-8-2,20.678987,20.678987,2,2
2,Nov-14,3,1,radial,0.2,0,L,0.56719,TRUE,0.2,4,2,Male,Asian,Not Hispanic or Latino,English,Lab,PA,2-8-8-2,20.678987,20.678987,2,2
2,Nov-14,3,1,radial,0.15,0,L,1.0252,TRUE,0.15,2,8,Male,Asian,Not Hispanic or Latino,English,Lab,PA,2-8-8-2,20.678987,20.678987,2,8
2,Nov-14,3,1,radial,0.15,0,L,1.0547,TRUE,0.15,3,8,Male,Asian,Not Hispanic or Latino,English,Lab,PA,2-8-8-2,20.678987,20.678987,2,8
2,Nov-14,3,2,radial,0,0.05,R,3.1694,TRUE,0.05,1,2,Male,Asian,Not Hispanic or Latino,English,Lab,PA,2-8-8-2,20.678987,20.678987,2,2
2,Nov-14,3,2,radial,0,0.05,L,1.7683,FALSE,0.05,4,2,Male,Asian,Not Hispanic or Latino,English,Lab,PA,2-8-8-2,20.678987,20.678987,2,2
2,Nov-14,3,2,radial,0.1,0,R,1.3848,FALSE,0.1,2,8,Male,Asian,Not Hispanic or Latino,English,Lab,PA,2-8-8-2,20.678987,20.678987,2,8
2,Nov-14,3,2,radial,0.1,0,L,1.0534,TRUE,0.1,3,8,Male,Asian,Not Hispanic or Latino,English,Lab,PA,2-8-8-2,20.678987,20.678987,2,8
2,Nov-14,3,3,radial,0,0.2,R,1.1342,TRUE,0.2,1,2,Male,Asian,Not Hispanic or Latino,English,Lab,PA,2-8-8-2,20.678987,20.678987,2,2
2,Nov-14,3,3,radial,0,0.2,R,0.6511,TRUE,0.2,4,2,Male,Asian,Not Hispanic or Latino,English,Lab,PA,2-8-8-2,20.678987,20.678987,2,2
2,Nov-14,3,3,radial,0,0.15,R,1.4848,TRUE,0.15,2,8,Male,Asian,Not Hispanic or Latino,English,Lab,PA,2-8-8-2,20.678987,20.678987,2,8
2,Nov-14,3,3,radial,0,0.15,R,2.4858,TRUE,0.15,3,8,Male,Asian,Not Hispanic or Latino,English,Lab,PA,2-8-8-2,20.678987,20.678987,2,8
2,Nov-14,3,4,radial,0,0.15,R,1.1344,TRUE,0.15,1,2,Male,Asian,Not Hispanic or Latino,English,Lab,PA,2-8-8-2,20.678987,20.678987,2,2
2,Nov-14,3,4,radial,0,0.15,R,0.95091,TRUE,0.15,4,2,Male,Asian,Not Hispanic or Latino,English,Lab,PA,2-8-8-2,20.678987,20.678987,2,2
2,Nov-14,3,4,radial,0,0.2,R,0.78409,TRUE,0.2,2,8,Male,Asian,Not Hispanic or Latino,English,Lab,PA,2-8-8-2,20.678987,20.678987,2,8
2,Nov-14,3,4,radial,0,0.2,R,1.0677,TRUE,0.2,3,8,Male,Asian,Not Hispanic or Latino,English,Lab,PA,2-8-8-2,20.678987,20.678987,2,8
2,Nov-14,3,5,linear,0.1,0,L,1.0177,TRUE,0.1,1,2,Male,Asian,Not Hispanic or Latino,English,Lab,PA,2-8-8-2,20.678987,20.678987,2,2
2,Nov-14,3,5,linear,0.1,0,L,1.2559,TRUE,0.1,4,2,Male,Asian,Not Hispanic or Latino,English,Lab,PA,2-8-8-2,20.678987,20.678987,2,2
2,Nov-14,3,5,radial,0.05,0,R,2.7025,FALSE,0.05,2,8,Male,Asian,Not Hispanic or Latino,English,Lab,PA,2-8-8-2,20.678987,20.678987,2,8
2,Nov-14,3,5,radial,0.05,0,L,1.7018,TRUE,0.05,3,8,Male,Asian,Not Hispanic or Latino,English,Lab,PA,2-8-8-2,20.678987,20.678987,2,8
2,Nov-14,3,6,linear,0.2,0,L,1.0013,TRUE,0.2,1,2,Male,Asian,Not Hispanic or Latino,English,Lab,PA,2-8-8-2,20.678987,20.678987,2,2
2,Nov-14,3,6,linear,0.2,0,L,0.99114,TRUE,0.2,4,2,Male,Asian,Not Hispanic or Latino,English,Lab,PA,2-8-8-2,20.678987,20.678987,2,2
2,Nov-14,3,6,radial,0,0.1,R,2.3688,TRUE,0.1,2,8,Male,Asian,Not Hispanic or Latino,English,Lab,PA,2-8-8-2,20.678987,20.678987,2,8
2,Nov-14,3,6,radial,0,0.1,L,1.6017,FALSE,0.1,3,8,Male,Asian,Not Hispanic or Latino,English,Lab,PA,2-8-8-2,20.678987,20.678987,2,8
2,Nov-14,3,7,linear,0.05,0,L,3.1529,TRUE,0.05,1,2,Male,Asian,Not Hispanic or Latino,English,Lab,PA,2-8-8-2,20.678987,20.678987,2,2
2,Nov-14,3,7,linear,0.05,0,L,2.6592,TRUE,0.05,4,2,Male,Asian,Not Hispanic or Latino,English,Lab,PA,2-8-8-2,20.678987,20.678987,2,2
2,Nov-14,3,7,radial,0,0.05,R,1.1176,TRUE,0.05,2,8,Male,Asian,Not Hispanic or Latino,English,Lab,PA,2-8-8-2,20.678987,20.678987,2,8
2,Nov-14,3,7,radial,0,0.05,R,2.102,TRUE,0.05,3,8,Male,Asian,Not Hispanic or Latino,English,Lab,PA,2-8-8-2,20.678987,20.678987,2,8
2,Nov-14,3,8,linear,0,0.2,R,0.96811,TRUE,0.2,1,2,Male,Asian,Not Hispanic or Latino,English,Lab,PA,2-8-8-2,20.678987,20.678987,2,2
2,Nov-14,3,8,linear,0,0.2,R,0.70507,TRUE,0.2,4,2,Male,Asian,Not Hispanic or Latino,English,Lab,PA,2-8-8-2,20.678987,20.678987,2,2
2,Nov-14,3,8,linear,0.2,0,L,0.51737,TRUE,0.2,2,8,Male,Asian,Not Hispanic or Latino,English,Lab,PA,2-8-8-2,20.678987,20.678987,2,8
2,Nov-14,3,8,linear,0.2,0,L,0.75085,TRUE,0.2,3,8,Male,Asian,Not Hispanic or Latino,English,Lab,PA,2-8-8-2,20.678987,20.678987,2,8
2,Nov-14,3,9,linear,0,0.15,R,1.9185,TRUE,0.15,1,2,Male,Asian,Not Hispanic or Latino,English,Lab,PA,2-8-8-2,20.678987,20.678987,2,2
2,Nov-14,3,9,linear,0,0.15,R,0.91786,TRUE,0.15,4,2,Male,Asian,Not Hispanic or Latino,English,Lab,PA,2-8-8-2,20.678987,20.678987,2,2
2,Nov-14,3,9,linear,0,0.1,R,1.0512,TRUE,0.1,2,8,Male,Asian,Not Hispanic or Latino,English,Lab,PA,2-8-8-2,20.678987,20.678987,2,8
2,Nov-14,3,9,linear,0,0.1,L,2.4686,FALSE,0.1,3,8,Male,Asian,Not Hispanic or Latino,English,Lab,PA,2-8-8-2,20.678987,20.678987,2,8
2,Nov-14,3,10,radial,0.05,0,L,2.8354,TRUE,0.05,1,2,Male,Asian,Not Hispanic or Latino,English,Lab,PA,2-8-8-2,20.678987,20.678987,2,2
2,Nov-14,3,10,radial,0.05,0,L,2.4854,TRUE,0.05,4,2,Male,Asian,Not Hispanic or Latino,English,Lab,PA,2-8-8-2,20.678987,20.678987,2,2
2,Nov-14,3,10,radial,0.2,0,L,0.58384,TRUE,0.2,2,8,Male,Asian,Not Hispanic or Latino,English,Lab,PA,2-8-8-2,20.678987,20.678987,2,8
2,Nov-14,3,10,radial,0.2,0,L,1.1394,TRUE,0.2,3,8,Male,Asian,Not Hispanic or Latino,English,Lab,PA,2-8-8-2,20.678987,20.678987,2,8
2,Nov-14,3,11,radial,0.15,0,L,1.8575,TRUE,0.15,1,2,Male,Asian,Not Hispanic or Latino,English,Lab,PA,2-8-8-2,20.678987,20.678987,2,2
2,Nov-14,3,11,radial,0.15,0,L,0.75076,TRUE,0.15,4,2,Male,Asian,Not Hispanic or Latino,English,Lab,PA,2-8-8-2,20.678987,20.678987,2,2
2,Nov-14,3,11,linear,0.15,0,L,1.0891,TRUE,0.15,2,8,Male,Asian,Not Hispanic or Latino,English,Lab,PA,2-8-8-2,20.678987,20.678987,2,8
2,Nov-14,3,11,linear,0.15,0,L,0.85561,TRUE,0.15,3,8,Male,Asian,Not Hispanic or Latino,English,Lab,PA,2-8-8-2,20.678987,20.678987,2,8
2,Nov-14,3,12,radial,0,0.1,R,2.5736,TRUE,0.1,1,2,Male,Asian,Not Hispanic or Latino,English,Lab,PA,2-8-8-2,20.678987,20.678987,2,2
2,Nov-14,3,12,radial,0,0.1,R,2.5188,TRUE,0.1,4,2,Male,Asian,Not Hispanic or Latino,English,Lab,PA,2-8-8-2,20.678987,20.678987,2,2
2,Nov-14,3,12,linear,0.05,0,R,0.95072,FALSE,0.05,2,8,Male,Asian,Not Hispanic or Latino,English,Lab,PA,2-8-8-2,20.678987,20.678987,2,8
2,Nov-14,3,12,linear,0.05,0,R,2.3856,FALSE,0.05,3,8,Male,Asian,Not Hispanic or Latino,English,Lab,PA,2-8-8-2,20.678987,20.678987,2,8
2,Nov-14,3,13,radial,0.1,0,L,1.3513,TRUE,0.1,1,2,Male,Asian,Not Hispanic or Latino,English,Lab,PA,2-8-8-2,20.678987,20.678987,2,2
2,Nov-14,3,13,radial,0.1,0,L,3.5699,TRUE,0.1,4,2,Male,Asian,Not Hispanic or Latino,English,Lab,PA,2-8-8-2,20.678987,20.678987,2,2
2,Nov-14,3,13,linear,0,0.15,R,1.0562,TRUE,0.15,2,8,Male,Asian,Not Hispanic or Latino,English,Lab,PA,2-8-8-2,20.678987,20.678987,2,8
2,Nov-14,3,13,linear,0,0.15,R,1.1515,TRUE,0.15,3,8,Male,Asian,Not Hispanic or Latino,English,Lab,PA,2-8-8-2,20.678987,20.678987,2,8
2,Nov-14,3,14,linear,0,0.1,R,2.5188,TRUE,0.1,1,2,Male,Asian,Not Hispanic or Latino,English,Lab,PA,2-8-8-2,20.678987,20.678987,2,2
2,Nov-14,3,14,linear,0,0.1,L,2.5522,FALSE,0.1,4,2,Male,Asian,Not Hispanic or Latino,English,Lab,PA,2-8-8-2,20.678987,20.678987,2,2
2,Nov-14,3,14,linear,0,0.2,R,0.95092,TRUE,0.2,2,8,Male,Asian,Not Hispanic or Latino,English,Lab,PA,2-8-8-2,20.678987,20.678987,2,8
2,Nov-14,3,14,linear,0,0.2,R,0.81732,TRUE,0.2,3,8,Male,Asian,Not Hispanic or Latino,English,Lab,PA,2-8-8-2,20.678987,20.678987,2,8
2,Nov-14,3,15,linear,0,0.05,R,2.8372,TRUE,0.05,1,2,Male,Asian,Not Hispanic or Latino,English,Lab,PA,2-8-8-2,20.678987,20.678987,2,2
2,Nov-14,3,15,linear,0,0.05,R,1.5348,TRUE,0.05,4,2,Male,Asian,Not Hispanic or Latino,English,Lab,PA,2-8-8-2,20.678987,20.678987,2,2
2,Nov-14,3,15,linear,0.1,0,L,1.2347,TRUE,0.1,2,8,Male,Asian,Not Hispanic or Latino,English,Lab,PA,2-8-8-2,20.678987,20.678987,2,8
2,Nov-14,3,15,linear,0.1,0,L,1.3122,TRUE,0.1,3,8,Male,Asian,Not Hispanic or Latino,English,Lab,PA,2-8-8-2,20.678987,20.678987,2,8
2,Nov-14,3,16,linear,0.15,0,L,0.97216,TRUE,0.15,1,2,Male,Asian,Not Hispanic or Latino,English,Lab,PA,2-8-8-2,20.678987,20.678987,2,2
2,Nov-14,3,16,linear,0.15,0,L,1.0841,TRUE,0.15,4,2,Male,Asian,Not Hispanic or Latino,English,Lab,PA,2-8-8-2,20.678987,20.678987,2,2
2,Nov-14,3,16,linear,0,0.05,L,1.1954,FALSE,0.05,2,8,Male,Asian,Not Hispanic or Latino,English,Lab,PA,2-8-8-2,20.678987,20.678987,2,8
2,Nov-14,3,16,linear,0,0.05,R,2.719,TRUE,0.05,3,8,Male,Asian,Not Hispanic or Latino,English,Lab,PA,2-8-8-2,20.678987,20.678987,2,8
2,Nov-14,4,1,linear,0.1,0,L,1.7011,TRUE,0.1,1,2,Male,Asian,Not Hispanic or Latino,English,Lab,PA,2-8-8-2,20.678987,20.678987,2,2
2,Nov-14,4,1,linear,0.1,0,L,0.90093,TRUE,0.1,4,2,Male,Asian,Not Hispanic or Latino,English,Lab,PA,2-8-8-2,20.678987,20.678987,2,2
2,Nov-14,4,1,radial,0.15,0,L,0.88834,TRUE,0.15,2,8,Male,Asian,Not Hispanic or Latino,English,Lab,PA,2-8-8-2,20.678987,20.678987,2,8
2,Nov-14,4,1,radial,0.15,0,L,1.001,TRUE,0.15,3,8,Male,Asian,Not Hispanic or Latino,English,Lab,PA,2-8-8-2,20.678987,20.678987,2,8
2,Nov-14,4,2,radial,0.2,0,L,0.85562,TRUE,0.2,1,2,Male,Asian,Not Hispanic or Latino,English,Lab,PA,2-8-8-2,20.678987,20.678987,2,2
2,Nov-14,4,2,radial,0.2,0,L,0.65068,TRUE,0.2,4,2,Male,Asian,Not Hispanic or Latino,English,Lab,PA,2-8-8-2,20.678987,20.678987,2,2
2,Nov-14,4,2,linear,0.2,0,L,0.71732,TRUE,0.2,2,8,Male,Asian,Not Hispanic or Latino,English,Lab,PA,2-8-8-2,20.678987,20.678987,2,8
2,Nov-14,4,2,linear,0.2,0,L,0.66761,TRUE,0.2,3,8,Male,Asian,Not Hispanic or Latino,English,Lab,PA,2-8-8-2,20.678987,20.678987,2,8
2,Nov-14,4,3,radial,0,0.05,R,1.7922,TRUE,0.05,1,2,Male,Asian,Not Hispanic or Latino,English,Lab,PA,2-8-8-2,20.678987,20.678987,2,2
2,Nov-14,4,3,radial,0,0.05,R,1.5183,TRUE,0.05,4,2,Male,Asian,Not Hispanic or Latino,English,Lab,PA,2-8-8-2,20.678987,20.678987,2,2
2,Nov-14,4,3,radial,0.1,0,R,1.4679,FALSE,0.1,2,8,Male,Asian,Not Hispanic or Latino,English,Lab,PA,2-8-8-2,20.678987,20.678987,2,8
2,Nov-14,4,3,radial,0.1,0,R,1.1064,FALSE,0.1,3,8,Male,Asian,Not Hispanic or Latino,English,Lab,PA,2-8-8-2,20.678987,20.678987,2,8
2,Nov-14,4,4,linear,0.2,0,L,0.91762,TRUE,0.2,1,2,Male,Asian,Not Hispanic or Latino,English,Lab,PA,2-8-8-2,20.678987,20.678987,2,2
2,Nov-14,4,4,linear,0.2,0,L,0.73398,TRUE,0.2,4,2,Male,Asian,Not Hispanic or Latino,English,Lab,PA,2-8-8-2,20.678987,20.678987,2,2
2,Nov-14,4,4,radial,0,0.15,L,0.68425,FALSE,0.15,2,8,Male,Asian,Not Hispanic or Latino,English,Lab,PA,2-8-8-2,20.678987,20.678987,2,8
2,Nov-14,4,4,radial,0,0.15,R,2.1685,TRUE,0.15,3,8,Male,Asian,Not Hispanic or Latino,English,Lab,PA,2-8-8-2,20.678987,20.678987,2,8
2,Nov-14,4,5,linear,0.05,0,L,2.6524,TRUE,0.05,1,2,Male,Asian,Not Hispanic or Latino,English,Lab,PA,2-8-8-2,20.678987,20.678987,2,2
2,Nov-14,4,5,linear,0.05,0,L,1.2205,TRUE,0.05,4,2,Male,Asian,Not Hispanic or Latino,English,Lab,PA,2-8-8-2,20.678987,20.678987,2,2
2,Nov-14,4,5,linear,0,0.1,L,2.7951,FALSE,0.1,2,8,Male,Asian,Not Hispanic or Latino,English,Lab,PA,2-8-8-2,20.678987,20.678987,2,8
2,Nov-14,4,5,linear,0,0.1,R,4.5727,TRUE,0.1,3,8,Male,Asian,Not Hispanic or Latino,English,Lab,PA,2-8-8-2,20.678987,20.678987,2,8
2,Nov-14,4,6,radial,0,0.2,R,1.8184,TRUE,0.2,1,2,Male,Asian,Not Hispanic or Latino,English,Lab,PA,2-8-8-2,20.678987,20.678987,2,2
2,Nov-14,4,6,radial,0,0.2,R,2.3354,TRUE,0.2,4,2,Male,Asian,Not Hispanic or Latino,English,Lab,PA,2-8-8-2,20.678987,20.678987,2,2
2,Nov-14,4,6,radial,0,0.2,R,1.2011,TRUE,0.2,2,8,Male,Asian,Not Hispanic or Latino,English,Lab,PA,2-8-8-2,20.678987,20.678987,2,8
2,Nov-14,4,6,radial,0,0.2,R,0.8174,TRUE,0.2,3,8,Male,Asian,Not Hispanic or Latino,English,Lab,PA,2-8-8-2,20.678987,20.678987,2,8
2,Nov-14,4,7,radial,0,0.15,R,0.81738,TRUE,0.15,1,2,Male,Asian,Not Hispanic or Latino,English,Lab,PA,2-8-8-2,20.678987,20.678987,2,2
2,Nov-14,4,7,radial,0,0.15,R,2.386,TRUE,0.15,4,2,Male,Asian,Not Hispanic or Latino,English,Lab,PA,2-8-8-2,20.678987,20.678987,2,2
2,Nov-14,4,7,radial,0.05,0,L,2.7036,TRUE,0.05,2,8,Male,Asian,Not Hispanic or Latino,English,Lab,PA,2-8-8-2,20.678987,20.678987,2,8
2,Nov-14,4,7,radial,0.05,0,R,1.2927,FALSE,0.05,3,8,Male,Asian,Not Hispanic or Latino,English,Lab,PA,2-8-8-2,20.678987,20.678987,2,8
2,Nov-14,4,8,linear,0,0.2,R,3.1361,TRUE,0.2,1,2,Male,Asian,Not Hispanic or Latino,English,Lab,PA,2-8-8-2,20.678987,20.678987,2,2
2,Nov-14,4,8,linear,0,0.2,R,1.418,TRUE,0.2,4,2,Male,Asian,Not Hispanic or Latino,English,Lab,PA,2-8-8-2,20.678987,20.678987,2,2
2,Nov-14,4,8,linear,0.15,0,L,0.90125,TRUE,0.15,2,8,Male,Asian,Not Hispanic or Latino,English,Lab,PA,2-8-8-2,20.678987,20.678987,2,8
2,Nov-14,4,8,linear,0.15,0,L,1.0345,TRUE,0.15,3,8,Male,Asian,Not Hispanic or Latino,English,Lab,PA,2-8-8-2,20.678987,20.678987,2,8
2,Nov-14,4,9,linear,0,0.15,L,3.6028,FALSE,0.15,1,2,Male,Asian,Not Hispanic or Latino,English,Lab,PA,2-8-8-2,20.678987,20.678987,2,2
2,Nov-14,4,9,linear,0,0.15,R,0.91773,TRUE,0.15,4,2,Male,Asian,Not Hispanic or Latino,English,Lab,PA,2-8-8-2,20.678987,20.678987,2,2
2,Nov-14,4,9,radial,0,0.1,R,2.0515,TRUE,0.1,2,8,Male,Asian,Not Hispanic or Latino,English,Lab,PA,2-8-8-2,20.678987,20.678987,2,8
2,Nov-14,4,9,radial,0,0.1,R,2.8526,TRUE,0.1,3,8,Male,Asian,Not Hispanic or Latino,English,Lab,PA,2-8-8-2,20.678987,20.678987,2,8
2,Nov-14,4,10,linear,0,0.1,R,2.5687,TRUE,0.1,1,2,Male,Asian,Not Hispanic or Latino,English,Lab,PA,2-8-8-2,20.678987,20.678987,2,2
2,Nov-14,4,10,linear,0,0.1,R,1.0185,TRUE,0.1,4,2,Male,Asian,Not Hispanic or Latino,English,Lab,PA,2-8-8-2,20.678987,20.678987,2,2
2,Nov-14,4,10,radial,0,0.05,R,2.5689,TRUE,0.05,2,8,Male,Asian,Not Hispanic or Latino,English,Lab,PA,2-8-8-2,20.678987,20.678987,2,8
2,Nov-14,4,10,radial,0,0.05,L,1.5181,FALSE,0.05,3,8,Male,Asian,Not Hispanic or Latino,English,Lab,PA,2-8-8-2,20.678987,20.678987,2,8
2,Nov-14,4,11,radial,0.05,0,R,2.59,FALSE,0.05,1,2,Male,Asian,Not Hispanic or Latino,English,Lab,PA,2-8-8-2,20.678987,20.678987,2,2
2,Nov-14,4,11,radial,0.05,0,R,2.5689,FALSE,0.05,4,2,Male,Asian,Not Hispanic or Latino,English,Lab,PA,2-8-8-2,20.678987,20.678987,2,2
2,Nov-14,4,11,radial,0.2,0,L,0.68397,TRUE,0.2,2,8,Male,Asian,Not Hispanic or Latino,English,Lab,PA,2-8-8-2,20.678987,20.678987,2,8
2,Nov-14,4,11,radial,0.2,0,L,0.90156,TRUE,0.2,3,8,Male,Asian,Not Hispanic or Latino,English,Lab,PA,2-8-8-2,20.678987,20.678987,2,8
2,Nov-14,4,12,linear,0,0.05,L,3.3361,FALSE,0.05,1,2,Male,Asian,Not Hispanic or Latino,English,Lab,PA,2-8-8-2,20.678987,20.678987,2,2
2,Nov-14,4,12,linear,0,0.05,R,2.5525,TRUE,0.05,4,2,Male,Asian,Not Hispanic or Latino,English,Lab,PA,2-8-8-2,20.678987,20.678987,2,2
2,Nov-14,4,12,linear,0.05,0,R,1.3676,FALSE,0.05,2,8,Male,Asian,Not Hispanic or Latino,English,Lab,PA,2-8-8-2,20.678987,20.678987,2,8
2,Nov-14,4,12,linear,0.05,0,R,1.1345,FALSE,0.05,3,8,Male,Asian,Not Hispanic or Latino,English,Lab,PA,2-8-8-2,20.678987,20.678987,2,8
2,Nov-14,4,13,radial,0.15,0,R,3.4362,FALSE,0.15,1,2,Male,Asian,Not Hispanic or Latino,English,Lab,PA,2-8-8-2,20.678987,20.678987,2,2
2,Nov-14,4,13,radial,0.15,0,L,1.1752,TRUE,0.15,4,2,Male,Asian,Not Hispanic or Latino,English,Lab,PA,2-8-8-2,20.678987,20.678987,2,2
2,Nov-14,4,13,linear,0,0.15,L,3.9369,FALSE,0.15,2,8,Male,Asian,Not Hispanic or Latino,English,Lab,PA,2-8-8-2,20.678987,20.678987,2,8
2,Nov-14,4,13,linear,0,0.15,R,0.76754,TRUE,0.15,3,8,Male,Asian,Not Hispanic or Latino,English,Lab,PA,2-8-8-2,20.678987,20.678987,2,8
2,Nov-14,4,14,linear,0.15,0,L,2.4209,TRUE,0.15,1,2,Male,Asian,Not Hispanic or Latino,English,Lab,PA,2-8-8-2,20.678987,20.678987,2,2
2,Nov-14,4,14,linear,0.15,0,L,1.435,TRUE,0.15,4,2,Male,Asian,Not Hispanic or Latino,English,Lab,PA,2-8-8-2,20.678987,20.678987,2,2
2,Nov-14,4,14,linear,0,0.2,R,0.78437,TRUE,0.2,2,8,Male,Asian,Not Hispanic or Latino,English,Lab,PA,2-8-8-2,20.678987,20.678987,2,8
2,Nov-14,4,14,linear,0,0.2,R,0.76752,TRUE,0.2,3,8,Male,Asian,Not Hispanic or Latino,English,Lab,PA,2-8-8-2,20.678987,20.678987,2,8
2,Nov-14,4,15,radial,0,0.1,L,4.1703,FALSE,0.1,1,2,Male,Asian,Not Hispanic or Latino,English,Lab,PA,2-8-8-2,20.678987,20.678987,2,2
2,Nov-14,4,15,radial,0,0.1,R,1.3847,TRUE,0.1,4,2,Male,Asian,Not Hispanic or Latino,English,Lab,PA,2-8-8-2,20.678987,20.678987,2,2
2,Nov-14,4,15,linear,0.1,0,L,1.3354,TRUE,0.1,2,8,Male,Asian,Not Hispanic or Latino,English,Lab,PA,2-8-8-2,20.678987,20.678987,2,8
2,Nov-14,4,15,linear,0.1,0,L,0.70076,TRUE,0.1,3,8,Male,Asian,Not Hispanic or Latino,English,Lab,PA,2-8-8-2,20.678987,20.678987,2,8
2,Nov-14,4,16,radial,0.1,0,R,NA,FALSE,0.1,1,2,Male,Asian,Not Hispanic or Latino,English,Lab,PA,2-8-8-2,20.678987,20.678987,2,2
2,Nov-14,4,16,radial,0.1,0,L,1.001,TRUE,0.1,4,2,Male,Asian,Not Hispanic or Latino,English,Lab,PA,2-8-8-2,20.678987,20.678987,2,2
2,Nov-14,4,16,linear,0,0.05,R,2.7753,TRUE,0.05,2,8,Male,Asian,Not Hispanic or Latino,English,Lab,PA,2-8-8-2,20.678987,20.678987,2,8
2,Nov-14,4,16,linear,0,0.05,R,1.9729,TRUE,0.05,3,8,Male,Asian,Not Hispanic or Latino,English,Lab,PA,2-8-8-2,20.678987,20.678987,2,8
2,Nov-14,5,1,radial,0.2,0,L,1.0344,TRUE,0.2,1,2,Male,Asian,Not Hispanic or Latino,English,Lab,PA,2-8-8-2,20.678987,20.678987,2,2
2,Nov-14,5,1,radial,0.2,0,L,0.7341,TRUE,0.2,4,2,Male,Asian,Not Hispanic or Latino,English,Lab,PA,2-8-8-2,20.678987,20.678987,2,2
2,Nov-14,5,1,linear,0.2,0,L,0.77748,TRUE,0.2,2,8,Male,Asian,Not Hispanic or Latino,English,Lab,PA,2-8-8-2,20.678987,20.678987,2,8
2,Nov-14,5,1,linear,0.2,0,L,0.73993,TRUE,0.2,3,8,Male,Asian,Not Hispanic or Latino,English,Lab,PA,2-8-8-2,20.678987,20.678987,2,8
2,Nov-14,5,2,linear,0.1,0,L,3.7033,TRUE,0.1,1,2,Male,Asian,Not Hispanic or Latino,English,Lab,PA,2-8-8-2,20.678987,20.678987,2,2
2,Nov-14,5,2,linear,0.1,0,L,0.9869,TRUE,0.1,4,2,Male,Asian,Not Hispanic or Latino,English,Lab,PA,2-8-8-2,20.678987,20.678987,2,2
2,Nov-14,5,2,radial,0.15,0,L,1.0511,TRUE,0.15,2,8,Male,Asian,Not Hispanic or Latino,English,Lab,PA,2-8-8-2,20.678987,20.678987,2,8
2,Nov-14,5,2,radial,0.15,0,L,2.2524,TRUE,0.15,3,8,Male,Asian,Not Hispanic or Latino,English,Lab,PA,2-8-8-2,20.678987,20.678987,2,8
2,Nov-14,5,3,linear,0.2,0,L,2.7396,TRUE,0.2,1,2,Male,Asian,Not Hispanic or Latino,English,Lab,PA,2-8-8-2,20.678987,20.678987,2,2
